Time_ms;Pressure_Pa;Pressure_dPaPerSec;AccelX_mg;AccelY_mg;AccelZ_mg;GyroX_dps;GyroY_dps;GyroZ_dps;IMU_Moving
74494;100078.58;0.000;-13.18;-38.57;970.21;-12.85;-24.73;-8.72;1
74596;100078.61;0.306;41.50;-67.87;937.99;0.02;-14.57;5.47;1
74698;100080.64;19.914;91.80;-62.50;1039.06;3.36;10.79;10.10;1
74800;100080.20;-4.289;46.39;-66.41;1064.45;1.02;17.39;2.35;1
74902;100078.66;-15.165;-22.46;-27.34;979.49;-4.79;11.01;-19.92;1
75004;100079.84;11.642;174.32;-125.98;992.19;8.45;-3.78;-9.17;1
75106;100080.53;6.740;30.76;-60.06;946.29;9.08;-8.50;31.80;1
75208;100079.84;-6.740;42.48;-66.89;1102.05;7.75;-4.65;31.31;1
75310;100080.27;4.136;0.98;-50.78;995.61;-1.74;9.09;21.52;1
75412;100080.80;5.208;-2.93;-76.17;990.23;-1.11;1.13;19.52;1
75514;100078.78;-19.761;-49.80;-55.66;976.56;-1.82;3.26;14.62;1
75616;100080.50;16.850;-42.48;-39.55;989.26;-1.93;10.95;13.42;1
75718;100079.77;-7.200;-64.45;-46.39;1013.67;3.44;8.64;15.06;1
75820;100080.09;3.217;-52.25;-21.97;1010.25;2.48;-0.70;9.32;1
75922;100079.64;-4.442;-65.43;-2.44;991.21;-3.11;-0.04;2.34;0
76024;100080.73;10.723;-24.90;-31.74;950.68;-0.03;-0.37;-4.00;1
76126;100079.86;-8.578;-47.36;-82.52;964.36;-5.61;1.58;-7.87;1
76228;100079.61;-2.451;-69.34;-53.71;994.63;-4.38;2.65;-13.60;1
76330;100080.78;11.489;-62.01;-95.21;983.40;-5.99;2.33;-8.06;1
76432;100080.55;-2.298;-61.52;-63.48;987.30;-14.07;13.31;-16.08;1
76534;100080.97;4.136;14.16;-62.99;960.45;-16.48;45.85;-13.37;1
76636;100080.88;-0.919;-164.06;-106.93;916.50;8.45;22.37;-15.92;1
76738;100080.72;-1.532;-19.53;-194.82;1064.94;-1.68;23.65;-44.54;1
76840;100080.28;-4.289;-212.40;-171.39;841.80;21.85;28.92;-38.95;1
76942;100080.34;0.613;-116.70;-74.71;893.07;35.53;-8.84;-47.94;1
77044;100082.70;23.131;-202.15;-28.32;944.82;-17.53;-18.87;-36.32;1
77146;100082.05;-6.434;-155.27;-158.69;723.14;-11.76;-27.40;-26.93;1
77248;100083.08;10.110;-120.12;-106.45;955.08;28.97;-11.44;-26.06;1
77350;100083.77;6.740;-139.65;-80.57;922.85;12.95;-9.58;-22.97;1
77452;100083.11;-6.434;47.85;-21.48;932.13;21.54;-21.73;-31.93;1
77554;100084.80;16.544;243.16;-56.64;1084.47;4.91;-20.59;-5.92;1
77656;100085.45;6.434;102.05;-95.70;973.14;-5.02;-2.36;17.93;1
77758;100086.75;12.714;151.86;-96.19;1016.11;9.40;-29.76;-15.58;1
77860;100087.72;9.498;306.64;-152.34;1187.50;8.89;-8.40;-5.10;1
77962;100088.98;12.408;139.16;-88.87;1076.66;-39.12;2.03;11.49;1
78064;100088.17;-7.966;15.63;-202.15;1205.57;-11.11;-10.93;12.27;1
78166;100089.59;13.940;75.68;143.07;1244.14;-25.95;11.74;-10.88;1
78268;100089.11;-4.749;152.83;-189.94;928.22;1.19;21.97;-15.53;1
78370;100089.44;3.217;16.11;-71.29;991.70;-51.44;8.03;-19.81;1
78472;100090.83;13.634;164.06;-448.73;902.83;-10.68;6.60;-14.62;1
78574;100090.11;-7.047;-46.39;-296.87;1009.77;-14.83;8.62;17.83;1
78676;100089.61;-4.902;60.06;-242.68;761.23;4.18;3.73;19.53;1
78778;100090.97;13.327;95.21;-222.17;879.39;26.86;1.53;8.03;1
78880;100090.84;-1.225;-87.40;-17.58;1142.58;57.47;4.95;-22.70;1
78982;100093.03;21.446;46.88;-19.53;1305.18;44.50;9.69;-27.41;1
79084;100092.42;-5.974;50.78;-103.52;1021.48;8.15;19.07;1.63;1
79186;100090.81;-15.778;5.86;-104.00;977.05;19.75;4.65;6.21;1
79288;100091.44;6.127;79.59;-43.46;1001.95;5.79;-6.34;5.92;1
79390;100093.31;18.382;41.99;4.39;896.48;0.30;-4.81;3.45;1
79492;100092.38;-9.191;-5.86;101.56;930.18;8.70;-1.60;-8.93;1
79594;100092.73;3.523;43.95;70.80;991.21;11.86;-15.51;-10.29;1
79696;100092.94;1.991;26.86;-19.04;1038.09;-2.19;-9.37;2.48;1
79798;100093.86;9.038;63.48;52.25;761.72;13.82;-3.27;1.47;1
79900;100093.48;-3.676;-69.34;-21.48;941.41;-1.19;35.07;2.87;1
80002;100094.19;6.893;35.64;122.56;916.99;-20.42;17.44;-1.42;1
80104;100094.34;1.532;-22.95;47.85;1008.30;-14.43;-3.27;7.18;1
80206;100093.58;-7.506;178.22;87.89;112.79;-1.55;-0.68;6.94;1
80308;100095.22;16.085;-29.30;25.39;582.52;0.18;-3.08;-10.82;1
80410;100094.56;-6.434;34.18;53.22;771.00;-0.42;0.85;-1.47;1
80512;100096.63;20.221;-9.28;-18.07;977.05;2.03;-1.43;-0.61;0
80614;100098.11;14.553;-11.72;1.95;948.73;0.80;-0.27;-3.00;1
80716;100098.94;8.119;2.93;10.74;958.50;0.51;0.47;-1.53;1
80818;100099.38;4.289;-11.72;-17.58;960.94;0.21;1.34;1.21;1
80920;100100.78;13.787;0.49;13.18;978.03;1.23;0.67;1.02;0
81022;100100.95;1.685;-17.58;-2.93;980.47;1.86;2.45;1.43;0
81124;100103.33;23.284;-12.70;4.88;990.72;-1.20;0.92;-0.92;0
81226;100104.61;12.561;-3.42;13.67;992.68;-0.07;0.50;-2.10;0
81328;100105.69;10.570;3.42;5.37;978.52;1.47;2.58;0.61;0
81430;100108.75;30.025;-9.28;-13.18;1026.37;-0.88;1.37;-0.05;0
81532;100109.00;2.451;-17.58;6.84;1023.44;1.39;1.49;0.18;0
81634;100109.89;8.732;-11.72;-16.60;1009.77;2.31;2.04;-0.90;0
81736;100109.59;-2.911;-24.41;11.72;1001.95;0.73;0.25;-0.82;0
81838;100112.39;27.420;-17.09;2.93;1014.65;-0.91;-1.89;-2.39;0
81940;100114.98;25.429;-3.42;0.49;989.75;0.16;-0.50;0.44;0
82042;100116.77;17.463;3.91;-4.88;990.23;0.57;-0.06;-1.55;0
82144;100119.42;26.042;-16.11;-28.81;1005.37;-0.47;2.21;-0.11;0
82246;100121.16;17.004;-5.37;-5.37;993.65;0.69;0.47;-2.54;0
82348;100121.44;2.757;-13.18;6.35;989.75;0.41;0.93;1.33;0
82450;100123.17;17.004;-8.30;25.39;987.30;-0.27;0.01;-1.37;0
82552;100122.56;-5.974;5.37;1.95;1000.49;1.05;-2.93;-1.97;0
82654;100125.77;31.403;-22.46;-4.39;1019.04;-0.60;0.29;-1.56;0
82756;100126.52;7.353;-12.70;6.35;1003.91;-0.49;-1.50;0.84;0
82858;100127.75;12.102;-3.42;-3.91;995.61;-0.33;-0.22;-0.46;0
82960;100129.41;16.238;-23.93;9.77;1005.37;0.17;1.12;-3.85;0
83062;100130.95;15.165;-12.70;-2.93;1012.21;1.38;2.04;0.02;0
83164;100131.91;9.344;-11.72;0.98;1012.70;-0.21;-1.47;-1.27;0
83266;100131.45;-4.442;-5.86;-3.42;1004.39;1.09;1.98;-1.12;0
83368;100133.00;15.165;-11.72;-18.55;1021.00;1.11;2.05;-0.09;0
83470;100135.66;26.042;-9.28;-11.23;1027.34;1.37;-3.00;-0.64;0
83572;100137.00;13.174;-23.44;3.42;1011.72;1.59;-1.16;-0.71;0
83674;100137.86;8.425;-7.32;17.09;996.58;-0.53;0.34;1.02;0
83776;100138.19;3.217;-18.55;6.84;1000.98;1.90;-1.08;-0.41;0
83878;100140.06;18.382;5.86;-4.88;1004.88;1.58;0.44;-1.80;0
83980;100141.31;12.255;6.84;-1.95;1010.74;1.82;-0.20;0.34;0
84082;100142.67;13.327;-0.49;11.72;1002.44;0.74;-1.63;-0.76;0
84184;100143.05;3.676;-12.21;-0.49;989.75;-2.15;0.31;0.17;0
84286;100144.84;17.616;-6.35;-3.42;998.05;-1.18;-1.62;-3.42;0
84388;100147.39;24.969;-1.95;6.84;998.05;-0.40;0.88;-1.22;0
84490;100147.61;2.145;-11.72;6.84;1006.84;0.18;-0.78;-0.50;0
84592;100150.52;28.493;-16.11;13.18;993.65;1.11;0.94;-3.44;0
84694;100151.70;11.642;-7.32;-9.28;990.23;2.10;-2.31;-0.97;0
84796;100152.33;6.127;-9.77;3.91;1014.65;0.41;0.89;-1.14;0
84898;100155.16;27.727;-13.67;0.98;1012.70;1.86;1.18;-0.40;0
85000;100155.80;6.281;-15.14;4.39;997.56;0.59;1.04;-0.18;0
85102;100157.84;20.067;-1.46;10.25;1026.86;2.55;0.76;-1.09;0
85204;100158.45;5.974;-23.93;16.60;1016.11;1.88;-0.47;-0.45;0
85306;100159.17;7.047;-16.60;10.25;1000.49;1.06;-3.66;1.45;0
85408;100160.28;10.876;-19.04;3.42;1028.81;1.45;2.95;-3.27;0
85510;100162.81;24.816;-15.63;-2.93;1013.67;1.40;-0.05;0.00;0
85612;100162.94;1.225;-18.07;13.18;1033.20;0.95;-1.27;-0.78;1
85714;100166.02;30.178;-16.60;7.32;1041.50;1.88;-1.80;1.05;1
85816;100166.30;2.757;-18.07;2.93;1050.78;0.07;-0.30;-0.09;1
85918;100167.61;12.868;-11.23;0.00;1021.97;2.18;-0.92;0.49;0
86020;100169.30;16.544;1.95;-9.77;1034.67;0.60;3.17;-0.54;1
86122;100168.84;-4.442;-24.41;2.93;1080.08;1.47;1.65;1.38;1
86224;100171.53;26.348;-17.09;-3.42;1061.52;0.02;-0.85;0.43;1
86326;100172.02;4.749;-13.67;8.79;1058.11;-0.24;1.47;-2.16;1
86428;100172.30;2.757;-1.46;13.67;1042.97;-0.11;-0.79;-2.77;1
86530;100173.08;7.659;-7.32;2.93;1045.90;-0.18;-0.89;-0.76;1
86632;100174.09;9.957;-24.41;7.32;1064.45;1.22;-0.56;-2.15;1
86734;100174.23;1.379;-4.88;0.98;1055.18;0.51;-1.75;-2.11;1
86836;100173.20;-10.110;-11.72;8.30;1043.95;-0.50;-0.08;-0.86;1
86938;100174.67;14.400;-1.46;2.44;1046.39;0.22;3.98;-0.77;1
87040;100174.36;-3.064;-9.28;-4.39;1041.02;-0.34;-2.00;-0.05;1
87142;100175.47;10.876;2.44;3.91;1027.83;1.02;-0.60;-1.03;0
87244;100175.00;-4.596;-13.18;14.65;1035.16;1.82;0.05;0.12;1
87346;100174.94;-0.613;-7.32;-5.37;1039.06;-0.20;-1.35;0.19;1
87448;100175.91;9.498;-8.79;0.00;1034.18;-0.15;0.41;-0.40;1
87550;100176.89;9.651;-13.67;-8.30;1021.00;0.39;-0.31;0.18;0
87652;100175.44;-14.246;-12.70;-4.88;1015.62;-1.14;-0.63;-0.01;0
87754;100176.84;13.787;-4.39;-0.98;1016.60;-0.21;-1.45;-0.35;0
87856;100175.89;-9.344;-7.81;0.00;1019.53;-0.73;1.22;-2.82;0
87958;100176.33;4.289;-13.67;-6.35;1001.95;1.23;1.49;-0.58;0
88060;100176.41;0.766;-21.97;21.48;999.02;0.07;-2.02;-2.75;0
88162;100176.48;0.766;-16.11;-6.84;1011.72;0.40;3.30;-0.06;0
88264;100174.89;-15.625;-2.93;4.39;1015.62;0.42;2.08;-0.10;0
88366;100175.80;8.885;-7.32;-1.46;1001.95;0.75;-0.84;0.05;0
88468;100176.69;8.732;-6.35;5.37;1005.37;1.68;1.45;-2.07;0
88570;100175.72;-9.498;-13.67;1.46;1001.46;1.69;3.67;0.08;0
88672;100175.20;-5.055;-10.25;1.46;996.09;0.50;-1.53;-0.24;0
88774;100176.45;12.255;-15.14;-1.46;996.58;-0.64;0.31;-2.23;0
88876;100177.39;9.191;-6.35;7.32;1003.42;-0.61;2.60;-1.25;0
88978;100175.13;-22.212;-13.18;-7.32;1000.49;-0.05;1.55;-0.50;0
89080;100176.11;9.651;-2.93;-2.93;1014.65;0.34;0.74;-1.43;0
89182;100175.56;-5.362;-12.70;-16.11;1000.00;-0.34;3.38;-0.05;0
89284;100176.80;12.102;-8.30;4.88;993.16;-0.37;-1.85;1.19;0
89386;100176.48;-3.064;-2.44;0.00;1026.37;0.83;-2.59;-0.61;0
89488;100175.53;-9.344;-0.98;3.42;1002.93;0.83;-0.98;-2.16;0
89590;100175.52;-0.153;-15.14;-7.32;997.07;0.61;0.72;-1.60;0
89692;100175.77;2.451;-8.79;-6.35;1000.98;0.88;-0.24;-0.56;0
89794;100176.02;2.451;-22.95;-3.42;1003.91;2.28;0.88;-0.98;0
89896;100176.38;3.523;-14.65;-9.28;997.07;1.45;1.04;-0.05;0
89998;100175.53;-8.272;-8.30;-0.49;991.70;0.23;-1.98;-1.26;0
90100;100176.14;5.974;-8.79;3.91;1014.16;2.69;-0.71;-0.28;0
90202;100175.25;-8.732;-7.32;-5.86;1003.42;-0.18;0.31;-3.27;0
90304;100177.28;19.914;-9.77;8.79;1000.49;-0.21;0.67;-1.13;0
90406;100175.86;-13.940;-11.72;5.37;997.07;2.35;-0.15;-0.46;0
90508;100175.20;-6.434;3.42;7.32;1003.42;1.57;2.39;-0.47;0
90610;100177.55;22.978;-2.93;-13.67;1002.93;1.76;-0.40;0.56;0
90712;100176.42;-11.029;-18.55;6.35;1013.67;-0.35;0.94;-0.08;0
90814;100175.58;-8.272;-7.32;-1.95;1010.25;1.34;-2.18;-0.96;0
90916;100177.00;13.940;9.77;1.46;1014.65;0.82;-0.41;-2.34;0
91018;100176.66;-3.370;-11.23;8.30;1000.00;1.96;1.51;-1.21;0
91120;100176.47;-1.838;-6.35;2.93;999.02;0.67;-2.88;-1.18;0
91222;100176.78;3.064;-12.21;-6.84;992.19;0.87;0.61;-1.87;0
91324;100175.23;-15.165;-8.30;14.65;995.12;0.27;0.24;0.07;0
91426;100176.36;11.029;-22.46;4.88;990.23;2.18;1.55;-2.02;0
91528;100175.84;-5.055;-22.46;2.44;993.65;1.90;1.44;0.57;0
91630;100176.38;5.208;-16.60;-7.81;1002.93;1.82;-0.37;0.87;0
91732;100175.19;-11.642;-11.72;-15.14;1014.16;0.66;1.50;-0.83;0
91834;100176.53;13.174;-3.42;9.28;986.33;-0.51;0.05;-3.09;0
91936;100177.13;5.821;-6.84;-7.32;1006.84;1.49;1.47;-1.08;0
92038;100175.80;-13.021;-4.88;2.44;1007.32;1.54;-0.81;0.47;0
92140;100175.83;0.306;3.91;-2.44;1006.35;1.14;2.45;-1.89;0
92242;100176.39;5.515;-10.74;5.86;1005.86;2.02;-0.97;-1.54;0
92344;100176.94;5.362;-20.51;1.95;1008.30;0.95;0.69;-0.11;0
92446;100175.69;-12.255;-13.18;1.46;994.63;2.51;0.65;-1.02;0
92548;100176.13;4.289;-1.95;-14.16;1001.95;0.91;2.56;0.24;0
92650;100175.33;-7.812;0.00;4.39;997.56;1.34;-3.06;-2.94;0
92752;100175.70;3.676;-14.65;0.00;999.02;-0.61;0.69;-0.89;0
92854;100177.69;19.455;4.88;8.79;1007.81;0.52;1.71;0.62;0
92956;100175.91;-17.463;-12.70;2.93;1005.86;0.52;-0.35;-3.61;0
93058;100177.16;12.255;-11.23;-2.44;998.05;0.32;1.23;-1.73;0
93160;100176.41;-7.353;-16.60;4.88;993.16;0.30;-0.34;-0.96;0
93262;100176.05;-3.523;-3.91;-6.84;997.07;2.53;-2.03;-0.72;0
93364;100176.13;0.766;-21.48;-0.98;1009.77;1.21;-0.76;-1.40;0
93466;100176.39;2.604;0.00;8.79;999.51;2.12;2.65;-1.05;0
93568;100175.55;-8.272;-16.60;-2.44;1000.98;0.11;0.78;-1.66;0
93670;100175.44;-1.072;-15.14;-10.25;992.68;1.22;-0.66;-2.34;0
93772;100176.09;6.434;-11.72;-5.86;1011.23;-0.53;1.31;-0.01;0
93874;100175.97;-1.225;7.81;-7.32;996.09;0.08;1.18;-2.02;0
93976;100176.64;6.587;-4.39;1.95;995.12;2.14;0.20;-2.95;0
94078;100175.36;-12.561;-14.65;8.30;1005.86;-1.33;-1.35;-1.43;0
94180;100176.16;7.812;-10.25;-17.58;997.07;-0.56;-0.63;-1.04;0
94282;100175.64;-5.055;-13.67;1.46;1004.88;0.57;-0.45;-1.33;0
94384;100177.25;15.778;-4.88;2.44;996.09;1.01;1.50;-1.34;0
94486;100175.48;-17.310;-9.28;-1.46;1007.81;0.43;-0.13;1.02;0
94588;100175.59;1.072;-6.35;0.00;1001.95;1.08;0.08;0.72;0
94690;100174.05;-15.165;-13.67;0.98;1014.65;-0.58;3.27;-0.31;0
94792;100176.86;27.574;0.49;4.88;994.14;1.15;-1.95;0.12;0
94894;100176.09;-7.506;-0.49;6.35;1004.39;0.76;0.53;-1.31;0
94996;100176.53;4.289;-8.30;9.77;1002.44;1.18;0.68;-1.83;0
95098;100176.48;-0.460;-3.42;0.00;1011.23;-1.55;1.50;-1.29;0
95200;100175.58;-8.885;-8.30;4.39;1001.95;2.46;1.18;0.38;0
95302;100175.77;1.838;-14.16;8.79;1011.23;0.19;-1.63;-0.39;0
95404;100177.06;12.714;3.42;6.35;1009.77;1.37;0.86;-0.69;0
95506;100175.91;-11.336;-14.16;-6.35;999.51;-0.34;0.50;-0.43;0
95608;100174.66;-12.255;-10.25;7.32;1007.32;1.05;1.35;-0.56;0
95710;100176.08;13.940;7.81;1.46;984.86;0.11;-1.53;-1.22;0
95812;100175.05;-10.110;5.37;-3.42;1005.86;0.40;-0.82;1.09;0
95914;100175.91;8.425;-11.72;3.91;999.02;0.15;1.30;-1.34;0
96016;100176.08;1.685;-16.60;0.98;1002.44;1.34;0.02;0.48;0
96118;100176.38;2.911;2.93;11.23;1003.91;0.06;0.16;-1.21;0
96220;100176.33;-0.460;-11.23;6.84;1009.77;1.76;1.34;-0.79;0
96322;100176.20;-1.225;-10.25;1.95;996.58;0.29;2.32;-0.65;0
96424;100175.70;-4.902;-6.35;-5.37;1002.93;2.70;0.92;0.65;0
96526;100175.38;-3.217;-20.51;2.93;1007.81;-0.82;0.80;0.46;0
96628;100176.20;8.119;0.00;4.39;999.02;1.08;4.09;0.20;0
96730;100175.67;-5.208;-20.02;1.46;1012.70;0.81;2.31;-1.26;0
96832;100176.36;6.740;-6.35;-6.84;992.68;0.27;2.96;-0.29;0
96934;100175.05;-12.868;-8.30;3.42;1001.46;0.22;0.92;-1.97;0
97036;100175.47;4.136;-11.72;4.88;1003.91;0.21;0.73;0.33;0
97138;100175.39;-0.766;1.46;-8.79;999.02;0.24;0.10;-0.85;0
97240;100175.30;-0.919;-16.60;9.28;997.56;0.02;-1.72;0.50;0
97342;100175.30;0.000;-5.37;-4.88;1002.44;0.21;0.90;-1.96;0
97444;100174.55;-7.353;-10.25;-3.42;999.51;2.01;0.49;-2.25;0
97546;100175.78;12.102;-12.21;6.35;996.58;-0.44;0.96;-1.65;0
97648;100176.67;8.732;-13.18;-0.49;1004.39;-0.30;0.24;-3.55;0
97750;100175.78;-8.732;-3.91;10.25;1000.98;0.07;0.79;-0.05;0
97852;100175.31;-4.596;-5.37;-11.23;998.54;0.73;0.63;-0.37;0
97954;100175.19;-1.225;-7.81;16.11;1000.00;2.15;1.19;-2.11;0
98056;100174.44;-7.353;-0.49;12.21;1006.35;1.06;0.14;0.02;0
98158;100176.56;20.833;-6.84;3.42;999.51;1.21;2.15;-0.31;0
98260;100175.91;-6.434;-13.18;3.42;992.19;1.04;0.30;-2.46;0
98362;100175.94;0.306;-23.44;11.72;1016.60;0.59;-0.35;-2.74;0
98464;100175.83;-1.072;-3.42;7.81;998.54;-0.63;2.82;-2.98;0
98566;100175.19;-6.281;15.63;8.30;1005.37;0.52;2.39;-1.63;0
98668;100177.05;18.229;-11.23;-1.95;998.54;1.42;-0.05;-1.89;0
98770;100176.22;-8.119;-13.67;-8.79;992.68;0.79;2.24;-1.33;0
98872;100175.27;-9.344;-5.86;3.91;997.56;1.03;1.05;0.60;0
98974;100175.11;-1.532;-6.35;-10.25;1004.39;1.30;2.39;-1.77;0
99076;100175.13;0.153;-7.32;-4.39;1003.91;2.56;0.98;2.06;0
99178;100175.05;-0.766;8.79;20.51;1021.00;1.05;2.37;0.44;0
99280;100177.16;20.680;-19.53;9.28;994.14;0.46;0.98;0.41;0
99382;100175.97;-11.642;3.91;18.07;996.09;0.32;-0.19;-0.54;0
99484;100174.66;-12.868;-8.30;9.28;1003.91;0.85;-0.11;0.16;0
99586;100175.86;11.795;-10.25;-5.86;987.30;0.06;-0.82;-0.18;0
99688;100176.00;1.379;-12.70;9.28;1006.84;0.63;0.36;0.37;0
99790;100174.53;-14.400;1.46;-1.46;1006.84;0.68;0.24;-0.99;0
99892;100175.23;6.893;-8.30;11.72;1005.86;1.89;0.46;-1.53;0
99994;100176.27;10.110;-8.79;1.95;992.19;-0.43;1.72;-0.67;0
100096;100175.56;-6.893;-2.93;-8.30;1004.39;-0.24;-1.63;0.16;0
100198;100175.56;0.000;-16.60;-12.21;995.61;0.67;0.51;-0.76;0
100300;100175.58;0.153;-2.93;2.44;994.63;0.98;1.09;-1.20;0
100402;100174.39;-11.642;-0.98;-6.84;1005.86;-0.66;1.36;0.04;0
100504;100176.41;19.761;0.00;-14.16;1007.32;-1.20;-1.08;-1.25;0
100606;100176.00;-3.983;-13.18;4.88;1005.86;1.95;1.60;0.81;0
100708;100176.30;2.911;-10.25;9.77;1005.37;1.68;0.01;-1.85;0
100810;100176.64;3.370;-17.58;0.49;991.21;2.45;0.77;0.76;0
100912;100175.28;-13.327;1.95;-4.39;996.58;0.68;1.22;-2.53;0
101014;100175.97;6.740;13.18;5.86;999.51;0.33;1.80;-1.72;0
101116;100176.91;9.191;-10.25;-7.81;1002.44;2.37;2.12;-1.21;0
101218;100174.66;-22.059;-21.97;0.98;994.63;0.61;0.79;-2.51;0
101320;100175.72;10.417;0.00;2.44;999.51;1.81;-1.55;0.96;0
101422;100174.88;-8.272;-25.39;8.79;1002.93;1.67;-0.73;-3.01;0
101524;100175.77;8.732;8.79;9.77;1004.39;0.33;2.01;-0.94;0
101626;100173.97;-17.616;-18.07;6.84;996.58;0.70;0.18;-1.41;0
101728;100175.97;19.608;1.95;-5.37;988.28;0.46;0.94;0.27;0
101830;100175.02;-9.344;-23.44;-0.98;1007.81;1.56;-2.32;-0.53;0
101932;100176.23;11.949;-15.63;6.84;993.16;0.82;-3.36;-2.85;0
102034;100175.02;-11.949;-12.70;0.98;1003.91;-0.27;-0.54;0.39;0
102136;100175.14;1.225;-2.93;-2.44;981.45;2.96;1.97;-0.55;0
102238;100175.00;-1.379;-14.16;-3.91;1006.84;1.58;4.05;-0.22;0
102340;100174.30;-6.893;-15.63;10.25;1011.72;1.60;1.05;-0.21;0
102442;100175.33;10.110;5.37;11.72;1015.62;1.56;-0.71;-2.73;0
102544;100176.08;7.353;-9.77;8.30;993.16;0.27;2.33;1.01;0
102646;100175.66;-4.136;-16.11;-8.79;1010.25;0.07;0.79;-0.33;0
102748;100175.02;-6.281;-6.35;8.79;1007.32;0.86;0.37;-1.23;0
102850;100175.33;3.064;-11.23;3.91;1014.65;1.60;-0.92;0.81;0
102952;100174.84;-4.749;-1.95;8.79;1000.00;1.26;1.90;0.15;0
103054;100174.34;-4.902;-3.42;-5.37;985.35;-0.46;-0.56;0.06;0
103156;100173.80;-5.362;-14.65;-4.39;1000.49;-0.07;0.92;-0.69;0
103258;100173.95;1.532;-11.72;6.35;996.09;1.50;0.16;-1.66;0
103360;100174.38;4.136;-10.74;-2.44;1000.98;0.26;0.97;0.19;0
103462;100175.98;15.778;-13.18;-0.49;993.16;0.40;2.21;-0.66;0
103564;100174.42;-15.319;-16.60;-4.88;998.05;-0.33;0.13;-3.15;0
103666;100174.83;3.983;-22.95;0.98;1003.42;0.66;0.24;-1.52;0
103768;100176.20;13.480;-7.81;1.95;1004.88;-0.01;0.89;-1.17;0
103870;100176.14;-0.613;-14.16;-6.84;991.21;-0.50;0.63;-0.35;0
103972;100176.00;-1.379;-12.70;3.42;992.19;-0.21;0.41;1.31;0
104074;100176.09;0.919;-22.46;-1.46;998.54;0.76;0.10;-0.23;0
104176;100174.84;-12.255;-14.65;7.32;1009.28;0.42;0.27;0.51;0
104278;100175.77;9.038;-4.88;0.98;991.21;2.83;-0.11;-0.73;0
104380;100175.83;0.613;-14.16;0.49;1007.81;1.66;-1.21;-1.34;0
104482;100175.64;-1.838;-10.74;-3.91;1010.25;1.03;1.54;-0.39;0
104584;100175.67;0.306;-3.91;-2.93;998.05;1.06;-1.96;-2.14;0
104686;100175.61;-0.613;-2.93;-1.46;988.28;0.20;1.50;-0.08;0
104788;100174.48;-11.029;-12.21;-11.72;994.63;1.56;-0.53;-0.56;0
104890;100175.27;7.659;-7.32;10.74;1000.98;2.16;1.05;-0.45;0
104992;100175.52;2.451;-22.46;-5.37;990.72;1.23;2.92;-0.67;0
105094;100174.88;-6.281;-6.35;-1.46;1001.95;-0.27;-0.43;-0.89;0
105196;100175.36;4.749;-9.77;3.91;996.09;1.02;1.95;0.73;0
105298;100175.22;-1.379;-18.55;14.16;1005.37;0.95;1.51;-0.54;0
105400;100175.34;1.225;-3.91;7.32;1033.69;2.24;-1.44;-0.60;1
105502;100175.56;2.145;-2.44;13.18;1018.55;2.28;-1.92;1.02;0
105604;100175.61;0.460;-10.25;-7.32;1024.90;1.11;-1.37;-1.39;0
105706;100175.36;-2.451;-23.44;-12.70;1043.46;0.47;1.87;-0.15;1
105808;100174.58;-7.659;-11.72;12.70;1055.66;-0.85;1.34;-2.49;1
105910;100174.28;-2.911;-8.30;15.63;1050.29;1.25;-1.95;1.66;1
106012;100175.67;13.634;-16.11;-4.39;1049.80;-1.32;1.28;-0.89;1
106114;100173.64;-19.914;-2.44;-2.44;1047.36;0.99;-2.05;0.89;1
106216;100173.58;-0.613;1.95;0.49;1042.97;-0.82;-0.27;1.79;1
106318;100173.69;1.072;-5.37;-2.44;1045.90;2.04;-0.73;-2.31;1
106420;100173.08;-5.974;-10.74;2.93;1024.41;1.15;0.31;-0.65;0
106522;100172.72;-3.523;-12.70;-9.77;1029.30;0.25;0.11;-0.72;0
106624;100171.84;-8.578;0.98;6.35;1023.44;0.56;0.95;0.23;0
106726;100170.48;-13.327;-0.98;8.30;1014.16;-1.09;-1.15;-1.21;0
106828;100170.14;-3.370;-10.74;2.44;1015.14;1.02;1.36;1.63;0
106930;100170.66;5.055;-13.67;-2.93;1004.88;1.96;1.37;0.57;0
107032;100168.50;-21.140;-9.77;4.39;1014.16;1.56;0.32;-0.80;0
107134;100169.28;7.659;7.32;9.28;978.03;0.21;2.83;0.43;0
107236;100168.42;-8.425;-16.60;-14.65;976.56;1.98;-2.54;0.69;0
107338;100167.19;-12.102;-3.42;4.88;990.23;1.17;-0.65;-2.65;0
107440;100166.52;-6.587;-6.84;1.46;985.35;-0.49;0.19;-0.75;0
107542;100166.98;4.596;-9.28;-7.81;958.01;1.33;1.87;-0.07;1
107644;100165.89;-10.723;-10.74;-2.93;955.08;-0.52;-0.33;0.06;1
107746;100166.66;7.506;-18.07;5.37;954.10;1.48;0.15;-2.89;1
107848;100165.61;-10.263;-6.84;-0.98;953.61;-0.27;0.13;-2.19;1
107950;100165.92;3.064;-9.77;-4.39;946.29;-0.15;-0.06;0.15;1
108052;100165.81;-1.072;-17.58;6.84;958.98;1.11;1.00;-0.44;1
108154;100165.17;-6.281;-9.77;-8.30;954.10;1.31;-2.16;-0.76;1
108256;100163.86;-12.868;0.00;-0.98;968.26;-0.21;1.75;-0.51;1
108358;100165.61;17.157;-21.48;3.91;979.49;1.27;2.17;-0.59;0
108460;100164.45;-11.336;-21.48;-2.44;981.45;-0.53;-0.64;0.12;0
108562;100165.81;13.327;-14.65;2.93;993.16;-1.29;1.62;-2.66;0
108664;100165.63;-1.838;2.93;15.14;982.91;0.70;1.73;0.16;0
108766;100165.34;-2.757;-2.44;2.93;998.54;2.06;0.60;-0.14;0
108868;100165.47;1.225;-6.84;4.88;998.05;0.67;0.81;-2.06;0
108970;100165.25;-2.145;-13.18;-3.42;999.02;-0.62;2.38;-2.69;0
109072;100165.42;1.685;-4.39;-0.98;992.68;0.27;0.00;-0.55;0
109174;100166.58;11.336;-6.35;1.95;1000.49;0.09;-0.04;-0.02;0
109276;100165.03;-15.165;2.93;-9.28;1000.49;1.14;0.06;-0.66;0
109378;100166.42;13.634;-16.11;-7.81;1032.71;2.06;-0.77;-1.30;1
109480;100165.02;-13.787;-15.14;6.84;1005.37;0.81;-0.79;-1.16;0
109582;100166.03;9.957;-15.63;5.37;1004.88;2.23;-2.19;-0.81;0
109684;100164.94;-10.723;-9.77;1.95;1007.81;-0.44;1.42;-0.76;0
109786;100165.56;6.127;-4.88;13.67;1012.21;1.16;1.40;-0.11;0
109888;100164.25;-12.868;9.77;0.00;1017.58;0.44;-2.27;0.18;0
109990;100165.23;9.651;-10.25;3.42;1001.95;-0.80;2.02;-2.02;0
110092;100166.02;7.659;-11.72;8.30;1011.72;3.61;0.45;-0.38;0
110194;100164.97;-10.263;-0.49;-2.93;1007.32;2.28;2.56;-1.37;0
110296;100166.20;12.102;0.98;2.44;1008.30;0.29;-1.83;-0.92;0
110398;100165.33;-8.578;-11.72;5.86;995.12;1.15;-2.30;0.15;0
110500;100164.67;-6.434;-15.63;8.30;1010.74;0.85;2.54;-0.82;0
110602;100164.75;0.766;-1.95;-1.95;1009.77;0.34;-1.52;0.48;0
110704;100164.58;-1.685;-4.88;-1.46;1003.42;0.19;-0.64;0.60;0
110806;100166.13;15.165;-15.63;1.95;997.07;1.45;2.29;-1.26;0
110908;100165.83;-2.911;-11.72;1.95;1004.39;0.21;1.29;-1.35;0
111010;100164.50;-13.021;-9.28;-1.95;999.51;1.35;0.73;0.90;0
111112;100163.88;-6.127;-10.74;-4.88;994.63;-1.02;1.52;-0.98;0
111214;100164.42;5.362;-14.65;-1.46;1000.49;-1.37;-0.05;-1.98;0
111316;100164.44;0.153;-11.72;6.84;1006.84;-0.81;0.09;0.50;0
111418;100165.58;11.183;-12.70;-3.42;1003.42;-0.79;0.27;-0.47;0
111520;100165.81;2.298;-13.18;9.77;990.23;2.08;-1.56;-0.44;0
111622;100165.56;-2.451;-2.44;2.93;999.51;2.66;0.68;-1.94;0
111724;100166.02;4.442;-5.37;11.23;996.09;0.43;4.73;-0.98;0
111826;100166.13;1.072;-9.77;-14.65;1017.09;0.09;1.44;-0.77;0
111928;100167.05;9.038;-11.23;-0.98;987.79;0.59;3.76;-1.20;0
112030;100166.02;-10.110;-17.58;2.93;991.21;1.01;0.02;-0.47;0
112132;100165.83;-1.838;-14.65;11.23;1009.77;1.84;0.10;-0.89;0
112234;100166.25;4.136;-1.95;-12.21;1003.91;0.21;1.85;0.66;0
112336;100165.25;-9.804;-1.95;6.35;1004.39;2.69;0.77;0.18;0
112438;100165.33;0.766;-14.65;7.32;1013.67;1.41;0.04;-2.03;0
112540;100167.34;19.761;-5.86;-3.91;1000.00;0.93;0.60;0.35;0
112642;100165.44;-18.689;-11.72;3.42;1012.21;0.51;3.08;-0.18;0
112744;100166.52;10.570;0.98;-0.98;987.30;1.02;-2.87;-1.15;0
112846;100167.48;9.498;-12.21;1.95;1014.16;0.30;2.78;0.34;0
112948;100165.50;-19.455;-17.09;3.91;1000.98;2.05;1.39;-1.83;0
113050;100165.22;-2.757;-4.39;5.86;997.07;1.14;1.56;-3.08;0
113152;100166.16;9.191;-18.07;5.37;1007.32;1.66;-0.96;-4.16;0
113254;100166.25;0.919;-11.72;-1.95;1005.86;-1.10;0.28;-2.99;0
113356;100165.75;-4.902;-16.11;1.46;1002.93;0.69;0.12;-0.05;0
113458;100166.53;7.659;-8.30;-19.04;996.58;0.64;-3.70;-0.73;0
113560;100166.50;-0.306;-5.86;6.35;998.05;0.31;0.50;0.40;0
113662;100165.98;-5.055;-8.79;-9.28;1003.42;-0.09;-0.66;-2.89;0
113764;100166.19;1.991;-16.60;6.84;996.09;0.60;-1.28;0.30;0
113866;100165.52;-6.587;2.93;-4.88;1013.67;-0.41;-0.31;-0.45;0
113968;100166.58;10.417;-15.63;2.44;996.58;-0.66;-0.02;-0.92;0
114070;100165.91;-6.587;-3.42;-2.93;1007.81;0.28;-0.90;-1.21;0
114172;100166.05;1.379;-8.79;4.88;1010.25;1.50;0.26;-1.58;0
114274;100166.45;3.983;-8.30;10.25;996.09;1.24;-0.11;-0.82;0
114376;100166.81;3.523;-16.11;-5.37;1000.00;0.42;0.03;0.05;0
114478;100166.42;-3.830;-6.35;11.23;1017.58;0.75;1.40;-1.99;0
114580;100165.50;-9.038;-18.07;22.46;1010.25;1.91;-1.53;0.67;0
114682;100165.95;4.442;-4.88;3.91;1000.00;1.08;1.89;1.84;0
114784;100166.97;9.957;-0.49;-13.67;1000.00;2.21;0.07;-0.53;0
114886;100166.69;-2.757;-5.86;7.81;1014.16;1.66;-0.09;-0.48;0
114988;100165.92;-7.506;-6.84;-5.86;996.09;1.79;1.89;-2.46;0
115090;100165.86;-0.613;-13.18;-3.42;1001.95;-0.09;0.24;-2.78;0
115192;100166.14;2.757;-11.23;7.81;998.05;1.18;0.81;0.21;0
115294;100166.13;-0.153;-4.39;-8.30;1003.42;1.21;1.10;-1.76;0
115396;100165.44;-6.740;-11.23;0.00;1011.72;1.56;-0.47;-1.32;0
115498;100164.81;-6.127;-12.70;3.42;1013.67;0.60;1.41;-0.11;0
115600;100165.45;6.281;-20.02;11.23;1000.98;1.68;3.50;-1.00;0
115702;100167.42;19.301;-2.44;-3.42;1001.95;-1.31;-0.57;0.94;0
115804;100166.80;-6.127;-10.74;-0.49;1000.49;0.10;0.38;-0.89;0
115906;100165.75;-10.263;-16.60;-5.86;1000.98;1.02;0.70;0.37;0
116008;100165.30;-4.442;-0.49;5.37;1005.86;0.24;-2.32;0.90;0
116110;100165.02;-2.757;-5.37;-3.42;998.05;1.10;2.23;-2.06;0
116212;100164.66;-3.523;-11.72;-14.16;1000.00;0.34;1.34;0.51;0
116314;100164.56;-0.919;-15.63;-16.11;1005.37;0.19;0.15;-0.98;0
116416;100163.98;-5.668;-19.04;2.44;1018.55;-0.73;0.97;-1.64;0
116518;100162.98;-9.804;-4.88;1.95;1002.44;0.53;1.11;-0.71;0
116620;100164.89;18.689;-23.93;1.46;993.65;1.44;1.21;-1.73;0
116722;100162.86;-19.914;-9.77;1.95;991.21;-0.19;-0.52;-2.38;0
116824;100162.72;-1.379;-13.67;8.79;1000.00;0.31;0.56;0.48;0
116926;100163.50;7.659;-10.74;-12.70;1013.67;-1.89;1.34;0.80;0
117028;100163.39;-1.072;-20.02;6.35;1005.37;1.42;-1.60;-0.26;0
117130;100163.75;3.523;-10.74;2.44;1000.98;-0.13;-2.02;0.50;0
117232;100164.34;5.821;-9.77;-0.49;1003.42;-0.09;0.33;-3.62;0
117334;100163.89;-4.442;-11.23;-1.46;1012.70;-0.84;1.39;-2.75;0
117436;100162.88;-9.957;-18.55;-8.79;1001.95;0.37;0.17;-4.42;0
117538;100163.64;7.506;-18.07;-3.42;1003.42;0.22;0.98;-0.32;0
117640;100163.67;0.306;0.98;2.44;1008.30;1.17;1.23;-1.55;0
117742;100162.75;-9.038;-13.18;-3.42;1013.67;0.57;1.69;0.63;0
117844;100163.94;11.642;-12.21;8.79;996.58;0.65;-0.97;-0.95;0
117946;100162.80;-11.183;-3.91;7.81;1009.77;0.84;0.27;-0.73;0
118048;100164.16;13.327;-9.77;-6.84;1019.53;0.19;-3.14;-1.25;0
118150;100163.25;-8.885;-13.67;10.74;1002.44;1.01;-0.29;-0.16;0
118252;100163.38;1.225;-27.34;0.98;1016.60;0.48;1.66;-1.87;0
118354;100163.86;4.749;-5.37;6.84;1000.98;1.02;-0.13;0.02;0
118456;100162.38;-14.553;0.00;17.09;999.51;1.67;0.98;-1.71;0
118558;100163.48;10.876;-5.86;-9.77;1004.88;0.83;0.32;-0.70;0
118660;100163.80;3.064;-2.44;-6.84;1007.32;0.44;-0.35;0.93;0
118762;100163.34;-4.442;-14.65;14.16;991.21;0.51;0.52;-2.68;0
118864;100163.44;0.919;-17.58;4.39;991.70;1.27;0.19;-2.18;0
118966;100163.81;3.676;-9.77;3.42;1011.72;1.16;-0.32;-1.03;0
119068;100163.33;-4.749;1.46;11.23;1019.04;-0.71;2.10;-1.38;0
119170;100163.47;1.379;2.93;-12.21;997.56;0.76;2.65;-0.79;0
119272;100163.88;3.983;-12.70;-4.39;998.05;1.18;0.39;0.01;0
119374;100163.81;-0.613;-17.58;-7.32;995.61;-2.12;-2.49;-1.34;0
119476;100161.97;-18.076;-7.32;7.32;999.02;-0.67;-1.48;-0.74;0
119578;100163.97;19.608;-8.30;-3.91;1019.53;0.00;-0.10;-1.16;0
119680;100164.27;2.911;-8.79;-7.81;1004.39;0.77;2.01;-1.62;0
119782;100162.66;-15.778;-18.07;-1.95;1006.35;0.62;-2.94;0.44;0
119884;100162.98;3.217;-13.67;7.32;1003.42;1.18;-0.27;-0.38;0
119986;100163.31;3.217;-3.91;-3.91;992.19;-0.48;0.31;0.25;0
120088;100162.69;-6.127;-16.60;0.00;990.72;-0.04;-1.50;-1.00;0
120190;100164.84;21.140;3.42;-6.84;988.77;-0.07;-1.08;0.60;0
120292;100163.67;-11.489;-16.11;-5.86;1003.42;0.18;-1.22;-2.21;0
120394;100163.20;-4.596;0.49;4.39;980.96;-0.16;0.92;-2.08;0
120496;100163.61;3.983;-27.83;4.88;1011.23;1.60;1.79;-0.26;0
120598;100164.20;5.821;-23.44;9.77;999.51;1.93;-0.54;-1.44;0
120700;100163.25;-9.344;-16.11;-8.79;1007.81;0.02;1.37;-2.16;0
120802;100162.91;-3.370;-14.16;11.72;990.23;0.53;3.39;-0.98;0
120904;100164.55;16.085;-12.21;1.95;995.61;-0.04;1.31;-0.85;0
121006;100164.03;-5.055;-5.37;3.91;1009.77;-1.40;-0.73;-0.31;0
121108;100163.84;-1.838;-24.41;9.28;1004.39;1.48;0.17;0.72;0
121210;100162.80;-10.263;-0.49;-3.91;997.56;0.48;0.08;-1.22;0
121312;100163.34;5.362;-16.11;-3.91;993.16;0.64;2.48;-0.90;0
121414;100164.09;7.353;-4.88;-13.67;998.05;2.31;3.29;-0.98;0
121516;100164.38;2.757;-9.28;1.46;1005.37;0.11;0.36;-0.25;0
121618;100163.11;-12.408;-8.79;-10.25;1016.11;-0.30;0.14;-0.98;0
121720;100163.31;1.991;2.93;13.67;1005.37;2.96;-1.79;-0.48;0
121822;100164.44;11.029;-7.81;6.84;993.16;0.77;1.67;0.47;0
121924;100162.75;-16.544;-10.74;-10.25;999.02;0.11;-5.24;0.41;1
122026;100163.44;6.740;-15.63;5.86;1012.21;1.31;0.44;-1.11;0
122128;100163.72;2.757;-7.81;3.42;1004.39;0.51;-0.26;-3.03;0
122230;100164.17;4.442;-5.37;12.21;998.05;-0.02;0.73;-1.18;0
122332;100163.52;-6.434;-7.81;-0.98;1005.86;0.63;1.76;-1.92;0
122434;100163.86;3.370;-6.35;0.00;1012.70;-0.52;2.11;0.30;0
122536;100163.38;-4.749;-3.91;13.18;1002.44;0.72;-1.23;-1.11;0
122638;100162.66;-7.047;-3.91;1.95;1008.30;1.31;-0.44;1.42;0
122740;100163.63;9.498;-12.21;1.46;1008.30;0.76;2.26;-0.71;0
122842;100163.00;-6.127;-16.11;-6.35;1009.77;1.02;-0.52;-2.85;0
122944;100162.30;-6.893;-11.72;6.84;990.23;0.18;2.17;0.14;0
123046;100162.08;-2.145;-13.18;2.44;994.14;2.43;-1.89;-1.87;0
123148;100162.69;5.974;-7.81;9.77;1003.91;1.53;-1.60;0.21;0
123250;100161.98;-6.893;-7.81;7.81;1004.39;0.56;3.11;-1.54;0
123352;100161.80;-1.838;-13.67;1.46;988.77;1.21;0.90;-0.99;0
123454;100163.14;13.174;-11.23;-0.98;992.68;1.55;0.79;-1.47;0
123556;100163.02;-1.225;-8.79;5.86;999.51;0.73;1.44;-2.81;0
123658;100162.45;-5.515;-4.88;8.30;997.56;-0.27;0.51;0.80;0
123760;100163.14;6.740;-10.25;-5.37;1000.49;1.78;1.63;-1.50;0
123862;100163.47;3.217;0.00;3.91;1003.42;1.33;-1.64;-2.24;0
123964;100163.05;-4.136;5.37;6.35;1002.93;0.69;2.34;-0.44;0
124066;100163.98;9.191;-10.25;2.93;1012.21;0.44;1.76;0.00;0
124168;100162.63;-13.327;-7.32;-4.88;984.86;-0.22;0.60;-4.25;0
124270;100161.39;-12.102;-9.77;-0.98;1017.58;1.61;0.19;0.33;0
124372;100162.52;11.029;-8.30;11.72;1012.70;-0.37;0.59;-0.20;0
124474;100163.19;6.587;0.49;-1.95;992.68;0.94;1.95;0.53;0
124576;100162.41;-7.659;-14.16;5.37;1002.44;0.30;-0.63;0.51;0
124678;100162.39;-0.153;-14.65;6.84;993.65;0.92;2.29;-1.22;0
124780;100164.39;19.608;-12.70;9.28;988.28;1.69;0.31;-2.30;0
124882;100161.48;-28.493;-0.49;-12.21;1006.84;2.28;0.45;-1.73;0
124984;100162.63;11.183;-19.53;-2.44;1002.93;0.39;-0.28;-2.86;0
125086;100162.50;-1.225;-1.46;0.98;1008.30;1.12;-1.96;-1.82;0
125188;100162.42;-0.766;-13.67;0.00;1007.81;-0.60;-2.56;-2.01;0
125290;100161.36;-10.417;-6.84;12.70;1011.23;1.04;-2.63;-1.78;0
125392;100162.28;9.038;-12.70;20.51;1002.93;-0.11;1.55;0.31;0
125494;100162.00;-2.757;-7.32;12.70;994.14;1.27;0.59;-1.82;0
125596;100162.98;9.651;-10.74;7.32;997.07;-0.76;0.37;0.44;0
125698;100162.31;-6.587;-12.21;-0.98;983.89;0.08;-0.55;-0.34;0
125800;100162.69;3.676;7.81;-4.88;981.93;0.81;-1.88;0.20;0
125902;100161.41;-12.561;-4.88;-4.39;995.61;2.89;0.64;-1.56;0
126004;100161.11;-2.911;-14.16;-3.91;998.05;1.54;0.53;1.40;0
126106;100162.33;11.949;-13.67;0.98;1018.07;1.48;2.07;-0.48;0
126208;100162.45;1.225;0.00;18.07;1007.32;0.63;-0.69;1.96;0
126310;100161.59;-8.425;-16.60;5.37;1018.55;0.33;-0.60;0.38;0
126412;100163.61;19.761;-16.11;1.95;1029.79;1.58;1.01;-0.08;0
126514;100160.67;-28.799;-0.49;-7.32;1046.39;1.40;-2.32;-0.80;1
126616;100162.25;15.472;-11.23;-2.93;1032.23;1.56;3.47;-2.35;1
126718;100162.39;1.379;-13.18;-6.35;1040.53;0.02;1.71;-2.13;1
126820;100161.91;-4.749;-1.46;6.84;1049.32;1.63;-0.95;-0.78;1
126922;100160.42;-14.553;-5.86;-8.30;1058.59;-0.98;0.05;-0.66;1
127024;100160.45;0.306;-16.60;9.77;1064.45;-0.35;2.17;-3.18;1
127126;100160.55;0.919;2.93;3.91;1059.57;0.87;2.07;0.24;1
127228;100158.53;-19.761;-13.67;-1.46;1066.89;0.76;0.13;-2.17;1
127330;100158.28;-2.451;-3.91;-11.23;1058.59;0.24;-1.35;1.73;1
127432;100156.64;-16.085;-15.14;8.30;1054.20;-0.37;1.88;-2.56;1
127534;100156.83;1.838;-7.81;3.42;1057.13;0.21;0.64;-1.37;1
127636;100156.56;-2.604;-4.39;-6.84;1042.97;0.51;1.02;-0.58;1
127738;100154.47;-20.527;-11.72;-4.39;1058.11;0.55;-0.05;-0.67;1
127840;100154.31;-1.532;-4.39;-26.37;1072.27;-0.43;1.89;-1.04;1
127942;100152.75;-15.319;-0.98;-8.79;1043.95;1.55;1.15;0.38;1
128044;100151.77;-9.651;-8.79;11.72;1020.51;-0.02;-0.31;-0.44;0
128146;100150.33;-14.093;-10.74;5.37;1021.00;0.28;1.99;-1.10;0
128248;100148.59;-17.004;-2.44;-11.72;1020.51;1.47;3.15;1.23;0
128350;100148.70;1.072;2.93;12.21;1011.23;-0.29;-0.42;-1.64;0
128452;100146.89;-17.770;2.93;16.11;984.86;-0.43;-0.50;-0.42;0
128554;100145.42;-14.400;-6.84;6.35;1025.88;-0.79;1.27;0.14;0
128656;100143.98;-14.093;-18.07;9.28;1024.90;1.44;-1.76;-0.31;0
128758;100143.77;-2.145;-7.81;7.32;993.65;0.02;0.95;2.26;0
128860;100142.13;-16.085;-13.18;-7.81;1001.46;-0.82;1.05;-1.48;0
128962;100140.47;-16.238;5.86;6.35;978.52;1.51;-0.99;0.67;0
129064;100138.75;-16.850;-10.25;-7.81;1000.49;0.76;2.92;-3.11;0
129166;100138.20;-5.362;-9.28;-2.93;1003.91;0.70;0.02;-1.76;0
129268;100136.61;-15.625;-6.84;1.46;970.70;1.99;0.56;-1.42;0
129370;100135.61;-9.804;-19.04;9.77;992.19;1.11;-0.29;0.21;0
129472;100135.72;1.072;-9.28;0.00;974.61;1.19;2.70;1.03;0
129574;100134.14;-15.472;-21.97;1.95;970.21;2.01;1.77;-1.86;0
129676;100136.23;20.527;-9.77;3.91;970.70;0.82;0.60;-0.47;0
129778;100133.81;-23.744;0.49;-0.49;951.17;-0.55;0.95;-0.34;1
129880;100132.08;-17.004;-21.48;4.39;957.52;-0.69;-0.92;-1.34;1
129982;100132.34;2.604;2.44;-4.88;954.59;1.15;0.26;-0.27;1
130084;100132.30;-0.460;-15.14;-11.72;953.12;0.89;-1.34;-0.98;1
130186;100131.27;-10.110;-15.14;-9.28;960.45;-1.30;-1.37;-0.13;1
130288;100130.55;-7.047;-2.93;0.49;945.80;0.10;-0.45;0.13;1
130390;100129.25;-12.714;-10.25;-6.35;946.78;1.05;1.05;0.68;1
130492;100128.91;-3.370;-11.23;-16.11;958.50;0.58;-1.75;-0.93;1
130594;100129.11;1.991;-10.25;5.37;969.24;0.21;0.85;-0.31;1
130696;100127.86;-12.255;-4.39;-4.88;970.70;1.95;-0.85;-1.27;0
130798;100126.77;-10.723;0.98;-8.30;946.78;0.63;-0.99;-2.11;1
130900;100128.13;13.327;-12.70;-6.35;959.47;1.01;1.45;1.31;1
131002;100127.03;-10.723;-1.46;6.84;959.96;1.76;-0.74;-1.56;1
131104;100128.83;17.616;-3.91;-4.39;963.87;1.40;1.09;-0.89;1
131206;100126.67;-21.140;-15.63;6.84;971.19;1.80;-0.77;1.51;0
131308;100129.69;29.565;-6.84;-9.28;977.54;0.66;1.98;-1.10;0
131410;100128.61;-10.570;-4.39;2.44;973.14;1.44;-1.58;-0.68;0
131512;100128.19;-4.136;-3.91;6.35;984.37;0.34;-0.15;-0.25;0
131614;100127.72;-4.596;-2.44;-4.39;1005.37;1.40;2.17;0.08;0
131716;100128.08;3.523;3.42;0.98;991.21;-0.02;0.50;-2.15;0
131818;100129.00;9.038;-8.30;2.93;998.54;0.37;-0.11;0.25;0
131920;100128.38;-6.127;-13.18;0.00;1007.32;0.25;-0.32;-1.60;0
132022;100128.55;1.685;-2.93;6.84;997.07;0.55;1.66;-2.76;0
132124;100128.45;-0.919;-6.84;-8.30;997.56;0.84;0.91;-1.19;0
132226;100128.91;4.442;-0.98;-0.49;995.61;1.08;0.63;-0.92;0
132328;100128.25;-6.434;-29.79;3.91;1004.39;-0.11;0.07;-0.27;0
132430;100128.73;4.749;6.84;1.46;991.21;-0.63;1.47;-0.27;0
132532;100128.55;-1.838;-7.32;-4.88;995.12;0.66;0.40;-1.93;0
132634;100127.70;-8.272;-17.09;-5.37;1005.86;-1.03;-1.69;-1.07;0
132736;100128.39;6.740;-10.74;0.98;1013.67;0.87;2.06;-0.18;0
132838;100127.67;-7.047;-1.95;-5.37;1000.00;0.97;-0.85;-2.47;0
132940;100127.84;1.685;-9.77;11.23;1000.98;0.28;-0.05;-0.92;0
133042;100127.36;-4.749;-15.14;10.25;998.05;0.58;-1.82;-1.08;0
133144;100127.56;1.991;-2.93;2.93;1002.44;2.01;4.31;0.20;0
133246;100127.28;-2.757;-17.58;1.46;995.61;2.63;-1.27;-1.40;0
133348;100127.66;3.676;-8.79;5.37;1005.86;1.12;2.37;-2.51;0
133450;100128.69;10.110;-15.63;6.35;1004.88;1.06;4.05;-0.51;0
133552;100127.77;-9.038;-17.58;11.23;991.21;1.44;-3.37;-2.41;0
133654;100127.88;1.072;-10.25;2.44;1000.00;-0.13;1.75;-1.37;0
133756;100128.48;5.974;-6.35;2.44;1002.93;2.15;-1.94;-4.98;1
133858;100127.63;-8.425;4.88;0.98;1000.98;-0.28;1.37;0.51;0
133960;100128.28;6.434;-14.16;2.93;996.09;0.61;-1.96;0.63;0
134062;100127.48;-7.812;-3.42;-12.70;1002.44;1.45;4.30;-0.49;0
134164;100128.67;11.642;-13.18;6.84;1006.35;2.37;-0.05;-0.32;0
134266;100128.67;0.000;-5.86;0.98;998.54;0.75;0.50;0.20;0
134368;100128.69;0.153;-19.04;-7.32;999.51;-1.27;1.15;1.54;0
134470;100128.55;-1.379;-8.30;-0.49;1015.14;0.60;0.98;-1.64;0
134572;100128.56;0.153;13.18;5.37;991.21;1.19;0.89;-0.92;0
134674;100127.22;-13.174;-9.77;-6.35;1020.02;0.69;1.18;0.03;0
134776;100127.83;5.974;-11.23;7.81;1001.95;0.89;1.11;-1.63;0
134878;100129.30;14.400;-11.72;2.93;1001.46;0.08;1.31;-1.79;0
134980;100127.94;-13.327;-1.95;0.49;972.17;-0.45;-1.79;-1.28;0
135082;100129.36;13.940;-18.55;-0.98;1021.48;1.51;0.73;-1.60;0
135184;100128.47;-8.732;-11.72;-14.16;1013.67;0.86;-0.94;-1.07;0
135286;100127.25;-11.949;-1.95;-10.74;1003.91;0.95;-0.64;-0.19;0
135388;100128.89;16.085;0.49;1.46;998.54;0.52;3.11;1.82;0
135490;100129.13;2.298;-12.70;-0.98;1009.77;1.11;0.81;-1.68;0
135592;100128.11;-9.957;2.93;-9.77;995.12;1.69;-0.52;-0.15;0
135694;100127.86;-2.451;-10.25;-3.91;1004.39;-0.72;1.06;-1.91;0
135796;100128.11;2.451;-20.51;6.84;1017.09;1.70;-0.15;0.58;0
135898;100129.27;11.336;-4.88;7.81;989.75;0.79;0.51;0.19;0
136000;100128.73;-5.208;-14.65;19.04;1000.00;0.37;1.38;-0.67;0
136102;100128.83;0.919;-17.58;2.93;1011.72;1.48;-0.89;0.86;0
136204;100129.06;2.298;-8.79;10.74;1001.95;1.63;0.67;-2.63;0
136306;100129.06;0.000;-13.18;1.95;1010.74;2.85;-0.47;0.76;0
136408;100129.16;0.919;-12.21;-6.84;1008.30;1.50;1.54;-0.62;0
136510;100128.33;-8.119;-18.55;9.77;1008.30;1.19;2.28;-1.36;0
136612;100130.34;19.761;-8.30;-5.86;985.35;1.68;-0.60;1.87;0
136714;100130.19;-1.532;-8.79;6.35;993.16;2.08;0.19;-1.31;0
136816;100128.25;-18.995;-10.74;-12.70;1019.04;2.78;0.08;-0.93;0
136918;100128.50;2.451;3.91;-11.72;1008.30;2.00;0.98;0.58;0
137020;100130.22;16.850;-8.79;13.18;998.05;1.39;-1.31;-1.44;0
137122;100129.06;-11.336;-4.39;3.91;997.56;1.29;-0.12;-1.34;0
137224;100128.77;-2.911;-9.28;-3.91;1004.88;-0.03;0.44;-2.48;0
137326;100128.27;-4.902;-7.81;5.37;990.23;0.50;-0.66;-1.78;0
137428;100129.05;7.659;-15.63;4.39;1004.39;-0.01;-1.19;0.73;0
137530;100128.95;-0.919;-15.63;10.25;999.51;0.29;0.56;-0.21;0
137632;100128.33;-6.127;-5.37;-14.16;989.75;1.37;-3.37;0.28;0
137734;100128.30;-0.306;-5.86;1.46;1003.91;0.85;1.11;-0.99;0
137836;100129.16;8.425;-19.53;-8.79;1000.98;2.16;-1.94;1.38;0
137938;100128.59;-5.515;-18.07;0.49;996.58;0.50;-0.05;-0.57;0
138040;100127.83;-7.506;-0.49;3.91;1002.44;-0.24;1.04;-0.83;0
138142;100127.83;0.000;-3.91;-10.25;1007.81;-0.18;-1.40;-1.63;0
138244;100128.39;5.515;-16.11;-5.86;1012.70;0.94;-0.66;0.22;0
138346;100128.38;-0.153;-4.88;0.00;1009.77;-0.49;2.88;-1.24;0
138448;100128.86;4.749;-14.65;-4.88;1005.37;0.66;0.92;-0.04;0
138550;100128.86;0.000;-12.70;-3.42;1013.18;1.00;-3.27;0.17;0
138652;100129.94;10.570;-0.98;5.86;998.54;0.62;0.65;0.07;0
138754;100127.86;-20.374;-2.93;9.77;1002.44;-0.38;0.43;-1.15;0
138856;100128.39;5.208;-9.28;-3.91;999.51;1.28;0.24;-1.90;0
138958;100129.52;11.029;-8.79;-3.91;1008.30;1.80;-0.21;-0.08;0
139060;100128.42;-10.723;-21.48;-0.49;995.12;1.15;-2.12;0.07;0
139162;100129.38;9.344;-13.67;0.98;1005.86;1.24;1.27;1.97;0
139264;100129.73;3.523;-11.23;14.65;997.07;1.21;1.19;1.51;0
139366;100129.23;-4.902;-10.25;-6.35;1000.98;0.75;1.39;0.11;0
139468;100129.86;6.127;4.88;-9.28;1001.46;1.29;2.15;-1.62;0
139570;100129.88;0.153;-17.09;-1.95;1006.84;0.43;0.78;-2.08;0
139672;100128.80;-10.570;-12.70;0.00;1012.70;0.60;-1.72;-0.05;0
139774;100129.33;5.208;-15.63;-3.42;989.75;-0.73;-1.88;-0.27;0
139876;100128.88;-4.442;-20.51;10.25;1000.00;1.62;-0.44;0.20;0
139978;100130.03;11.336;-3.91;1.95;996.58;0.59;3.14;-0.01;0
140080;100129.86;-1.685;-18.55;3.91;999.02;-0.49;-1.57;1.52;0
140182;100129.56;-2.911;-16.11;13.18;998.54;0.58;0.58;-2.18;0
140284;100129.92;3.523;-15.63;-5.86;993.16;1.70;2.34;-1.36;0
140386;100130.25;3.217;-9.77;-6.84;1005.86;-0.11;-1.77;1.31;0
140488;100128.55;-16.697;-6.84;-3.42;1016.11;1.76;0.57;-1.75;0
140590;100129.56;9.957;-16.60;-13.67;1013.18;-0.18;2.71;1.66;0
140692;100128.67;-8.732;-5.86;0.00;998.05;1.29;1.18;-0.60;0
140794;100129.64;9.498;-11.72;6.84;989.26;1.34;0.47;-0.88;0
140896;100129.80;1.532;-7.32;-2.93;993.65;1.69;1.01;0.44;0
140998;100130.00;1.991;0.00;6.84;1001.46;0.45;3.69;0.14;0
141100;100130.47;4.596;-7.32;0.98;1001.46;-0.33;1.99;-0.92;0
141202;100129.89;-5.668;-17.58;10.25;1002.93;-1.37;0.76;1.29;0
141304;100129.55;-3.370;3.42;-2.93;1004.39;0.69;0.43;-0.85;0
141406;100129.91;3.523;-8.79;-8.30;1007.32;-0.21;0.35;-0.32;0
141508;100129.58;-3.217;-7.81;9.77;997.56;0.06;3.20;-0.56;0
141610;100128.91;-6.587;-9.77;-3.91;997.56;0.14;0.76;-1.21;0
141712;100130.19;12.561;-7.81;12.70;1009.77;-0.02;2.02;-0.34;0
141814;100128.77;-13.940;-13.18;-3.42;1006.35;2.02;2.15;-1.48;0
141916;100130.02;12.255;-19.53;12.70;987.30;0.31;0.58;-0.73;0
142018;100128.77;-12.255;-10.25;11.23;1002.44;2.39;0.76;-0.18;0
142120;100130.69;18.842;-14.65;0.00;997.07;2.38;-1.12;0.54;0
142222;100129.58;-10.876;-25.88;4.88;1011.23;1.18;1.23;-1.05;0
142324;100129.86;2.757;-13.18;4.88;1010.74;1.22;-0.35;-1.05;0
142426;100129.42;-4.289;-12.21;-9.28;1004.88;0.96;-0.07;-2.78;0
142528;100128.30;-11.029;-23.93;-4.88;998.05;2.41;-0.38;-3.43;0
142630;100128.91;5.974;-9.77;-2.93;1006.84;1.08;1.62;-2.43;0
142732;100129.08;1.685;-8.79;-7.32;999.02;-0.31;0.27;-0.27;0
142834;100128.55;-5.208;-10.74;5.86;1018.07;-0.92;0.18;-0.82;0
142936;100129.83;12.561;-2.93;17.09;990.23;-0.11;0.69;-1.44;0
143038;100129.83;0.000;-0.49;5.37;1003.42;0.47;2.52;0.07;0
143140;100129.83;0.000;-13.18;8.79;986.33;0.91;-1.15;-1.43;0
143242;100128.88;-9.344;-21.48;2.44;1009.77;1.18;2.77;0.83;0
143344;100129.13;2.451;-14.65;4.88;1005.86;2.02;0.76;-2.49;0
143446;100130.41;12.561;-7.81;7.81;1003.91;-0.67;-1.13;-0.78;0
143548;100130.03;-3.676;-13.18;-4.39;1000.49;0.21;-0.30;-0.50;0
143650;100129.81;-2.145;-8.30;1.95;1000.49;0.40;0.88;-1.56;0
143752;100130.06;2.451;-2.93;7.81;996.58;-0.46;0.60;-0.26;0
143854;100131.20;11.183;-5.37;0.98;999.51;1.53;-0.59;-0.63;0
143956;100129.08;-20.833;-4.88;0.98;1002.93;1.63;1.50;0.15;0
144058;100129.44;3.523;-3.42;11.72;990.23;1.78;-0.34;0.63;0
144160;100130.86;13.940;1.46;6.35;1009.28;0.49;1.04;-1.77;0
144262;100129.52;-13.174;-25.39;7.81;1005.37;1.84;-1.18;-1.63;0
144364;100129.28;-2.298;-6.35;7.81;1015.14;-0.35;0.40;-0.94;0
144466;100129.91;6.127;-14.65;-4.88;993.65;0.05;0.15;-1.05;0
144568;100129.97;0.613;3.91;-12.70;984.86;1.43;0.27;-1.57;0
144670;100128.80;-11.489;-22.46;-2.44;1010.25;0.47;2.60;-0.57;0
144772;100128.66;-1.379;-9.28;-12.21;1001.46;0.87;2.79;0.52;0
144874;100129.92;12.408;-11.23;14.16;995.12;-0.66;-0.27;-1.73;0
144976;100128.94;-9.651;-6.35;0.00;1003.91;0.66;0.90;-1.27;0
145078;100130.09;11.336;1.95;7.81;988.28;0.98;2.19;-1.43;0
145180;100128.19;-18.689;-17.09;-13.18;1005.37;1.27;-0.97;-0.46;0
145282;100127.86;-3.217;-11.23;13.67;982.91;-0.08;-2.78;-1.52;0
145384;100129.55;16.544;-2.44;-3.91;984.86;0.76;-1.40;0.52;0
145486;100128.91;-6.281;0.00;-1.95;1009.28;1.48;3.40;1.36;0
145588;100128.17;-7.200;-13.18;0.00;1000.00;-0.18;1.02;-1.58;0
145690;100129.20;10.110;-13.18;-0.49;998.54;0.79;2.10;0.98;0
145792;100129.89;6.740;-4.88;1.46;991.21;1.69;0.00;0.79;0
145894;100128.02;-18.382;-3.91;-7.81;1007.32;-0.04;1.93;1.03;0
145996;100128.39;3.676;-16.60;7.32;999.51;-0.24;-1.02;-1.23;0
146098;100128.58;1.838;-22.95;1.46;1013.67;1.15;-0.62;-1.76;0
146200;100129.31;7.200;-18.07;3.42;1008.30;-0.86;0.36;0.82;0
146302;100126.88;-23.897;-18.07;-9.28;996.58;1.43;1.07;-0.16;0
146404;100128.45;15.472;-12.70;-15.63;984.37;0.81;-1.56;-0.46;0
146506;100129.42;9.498;-10.74;-5.37;994.14;1.42;3.64;-0.81;0
146608;100127.86;-15.319;-17.09;2.93;1006.35;2.75;0.08;0.87;0
146710;100128.86;9.804;1.46;4.39;989.26;0.27;1.31;-0.11;0
146812;100126.97;-18.536;-19.53;-6.35;1008.30;1.01;1.08;0.24;0
146914;100128.34;13.480;-9.28;5.37;999.02;1.35;1.33;-1.30;0
147016;100129.02;6.587;1.95;6.35;1003.91;1.40;1.22;-0.56;0
147118;100127.58;-14.093;-17.09;5.37;997.56;-0.31;3.80;-0.69;0
147220;100127.86;2.757;-31.74;9.28;1002.44;1.21;-0.81;-2.02;0
147322;100127.95;0.919;-16.11;10.25;1000.00;0.28;0.70;0.11;0
147424;100127.39;-5.515;-15.63;3.91;1000.49;1.20;0.07;-1.49;0
147526;100127.36;-0.306;-19.04;0.00;999.51;1.92;1.57;-1.84;0
147628;100127.52;1.532;1.95;-7.32;996.58;0.88;1.75;-0.82;0
147730;100128.28;7.506;-3.42;-3.91;984.86;1.66;-0.40;-0.03;0
147832;100127.31;-9.498;-20.51;10.25;990.23;-0.15;-0.47;-2.05;0
147934;100127.53;2.145;-19.53;-4.39;994.63;1.08;-0.47;-1.13;0
148036;100127.56;0.306;-10.74;16.60;1007.81;1.24;0.05;-0.08;0
148138;100127.27;-2.911;-16.60;-2.44;1011.72;1.01;0.72;-0.70;0
148240;100127.77;4.902;-4.88;-2.93;1011.72;0.63;1.69;-0.73;0
148342;100127.94;1.685;-7.32;-9.28;1002.44;1.04;0.81;-2.87;0
148444;100127.88;-0.613;-1.46;5.37;986.82;0.59;1.24;-0.31;0
148546;100126.45;-13.940;-19.53;9.77;997.56;2.16;-0.24;-1.92;0
148648;100128.08;15.931;-4.39;18.07;1006.84;-0.61;1.33;0.80;0
148750;100127.73;-3.370;-10.74;14.65;985.35;-0.02;-0.69;-0.45;0
148852;100127.58;-1.532;-14.16;-1.95;1004.88;1.08;3.40;-0.91;0
148954;100127.39;-1.838;-6.35;0.49;1023.93;-0.03;1.12;0.87;0
149056;100128.13;7.200;-2.44;-0.49;1005.86;0.24;3.07;-0.21;0
149158;100127.64;-4.749;-20.02;-8.30;1021.97;0.81;0.16;-1.41;0
149260;100128.48;8.272;0.49;0.98;1028.32;-1.55;-0.49;-0.90;0
149362;100128.44;-0.460;-9.28;0.00;1034.18;1.82;0.87;-0.20;1
149464;100127.91;-5.208;-13.18;3.91;1032.71;0.09;-1.24;-1.92;1
149566;100127.30;-5.974;0.98;8.79;1041.50;0.39;0.08;-0.77;1
149668;100129.28;19.455;-13.67;9.28;1041.02;-0.49;-0.65;-0.19;1
149770;100128.11;-11.489;-15.14;4.39;1049.32;0.01;-2.30;1.46;1
149872;100127.61;-4.902;-23.93;0.49;1053.22;2.60;3.13;-1.64;1
149974;100125.38;-21.906;-1.95;4.39;1050.29;0.85;1.52;-2.71;1
150076;100125.89;5.055;-11.72;-20.51;1047.36;0.11;3.00;-2.25;1
150178;100125.84;-0.460;2.93;5.37;1057.62;2.14;-2.85;1.70;1
150280;100125.28;-5.515;-7.32;6.84;1076.17;-0.55;1.82;-3.22;1
150382;100124.08;-11.795;-4.88;-11.23;1074.22;1.28;2.89;0.37;1
150484;100122.97;-10.876;-21.48;2.44;1049.32;0.12;0.09;-1.42;1
150586;100121.56;-13.787;-7.32;-3.91;1037.60;1.80;1.73;0.05;1
150688;100120.89;-6.587;-17.09;-12.70;1068.36;-0.80;1.10;-0.32;1
150790;100119.53;-13.327;-14.16;-0.49;1086.91;0.66;0.62;-1.16;1
150892;100118.95;-5.668;-5.37;-9.28;1059.57;-0.28;-1.14;1.12;1
150994;100117.92;-10.110;-13.67;6.84;1037.60;0.35;-1.88;-1.29;1
151096;100117.55;-3.676;-32.71;-8.30;1058.59;0.94;1.56;-0.51;1
151198;100114.95;-25.429;1.95;0.49;1031.74;2.37;0.34;-0.98;1
151300;100113.22;-17.004;-0.98;4.88;1038.09;1.87;1.57;-1.77;1
151402;100113.61;3.830;-20.51;10.74;1026.37;0.53;-0.47;-0.29;0
151504;100111.33;-22.365;-9.28;9.28;1005.37;0.57;-2.07;0.55;0
151606;100109.70;-15.931;-3.91;-3.91;1021.00;1.17;3.02;-2.28;0
151708;100110.64;9.191;-12.70;-11.23;1007.32;1.20;-2.37;-1.27;0
151810;100106.83;-37.377;-19.04;7.32;998.05;0.02;1.05;-0.03;0
151912;100107.27;4.289;-18.07;7.81;1001.95;1.34;0.66;-1.31;0
152014;100106.53;-7.200;1.95;0.98;979.98;0.44;0.24;-1.56;0
152116;100105.92;-5.974;-12.21;7.32;1012.70;1.63;-0.32;-0.10;0
152218;100102.75;-31.097;-7.32;5.37;980.47;1.08;-0.08;-1.42;0
152320;100103.02;2.604;-24.90;9.28;1007.81;1.96;3.49;-1.49;0
152422;100102.42;-5.821;5.37;-12.70;958.01;-2.66;-1.73;-3.27;1
152524;100100.53;-18.536;1.95;2.44;960.45;-0.17;0.12;-0.18;1
152626;100100.86;3.217;-15.63;-5.37;976.07;0.03;1.07;-1.78;0
152728;100101.72;8.425;-12.21;-4.39;953.61;-1.27;1.95;-0.45;1
152830;100100.11;-15.778;-2.93;2.93;936.04;1.07;2.43;-1.54;1
152932;100098.78;-13.021;-22.95;5.37;952.15;0.46;2.30;-2.14;1
153034;100097.14;-16.085;-18.55;2.93;963.87;-0.40;-0.53;-0.47;1
153136;100099.09;19.148;5.37;7.81;936.04;0.18;2.22;-0.11;1
153238;100096.61;-24.357;-11.23;1.46;945.31;0.91;-1.06;-1.24;1
153340;100097.69;10.570;-6.84;1.46;956.54;0.82;-1.38;0.73;1
153442;100096.03;-16.238;-20.51;11.72;937.50;1.93;-1.50;-0.73;1
153544;100095.30;-7.200;-11.23;-2.44;953.12;0.05;0.30;-0.95;1
153646;100096.30;9.804;-14.65;5.86;970.70;2.18;4.65;-1.11;1
153748;100095.34;-9.344;-7.81;2.93;972.17;0.80;1.69;-0.34;0
153850;100095.06;-2.757;-13.67;-7.32;953.12;1.47;2.88;-1.11;1
153952;100095.88;7.966;-25.88;-4.39;966.80;3.32;0.74;-1.73;1
154054;100095.91;0.306;-13.18;-6.35;972.66;-0.07;-1.78;-0.85;0
154156;100095.27;-6.281;-10.74;-8.79;972.66;0.37;0.01;-2.05;0
154258;100096.09;8.119;0.49;14.65;991.21;0.63;1.34;1.08;0
154360;100095.38;-7.047;-9.28;1.95;979.49;0.08;2.83;-0.63;0
154462;100096.38;9.804;1.95;0.98;982.91;1.78;-1.11;-2.05;0
154564;100095.64;-7.200;-8.79;8.79;987.30;0.89;0.69;-0.72;0
154666;100095.95;3.064;-7.32;-8.30;1008.79;0.56;0.40;-0.67;0
154768;100096.00;0.460;1.46;6.84;993.65;-0.18;-1.02;-0.12;0
154870;100095.92;-0.766;-14.65;-1.95;1017.09;0.70;0.15;-0.44;0
154972;100095.69;-2.298;1.46;1.95;1013.67;-0.50;1.70;-0.33;0
155074;100096.06;3.676;0.00;-1.46;1000.49;-0.04;-0.32;-1.28;0
155176;100095.52;-5.362;-16.60;-14.16;1006.84;0.60;2.29;-0.56;0
155278;100096.63;10.876;-2.44;10.25;989.75;1.66;0.79;-1.58;0
155380;100096.58;-0.460;7.81;0.49;1001.46;1.05;-0.61;1.02;0
155482;100095.88;-6.893;-9.28;-8.30;1011.23;0.58;0.90;-4.31;0
155584;100095.23;-6.281;-6.35;-5.37;1005.37;-1.44;-0.61;1.30;0
155686;100096.13;8.732;-3.91;9.77;988.77;1.27;-0.77;-2.51;0
155788;100097.23;10.876;-18.55;1.46;1007.32;0.70;-0.05;1.51;0
155890;100096.88;-3.523;-9.77;-3.42;1004.39;0.25;0.76;0.55;0
155992;100096.06;-7.966;-9.77;-8.79;1010.74;-0.18;1.63;-1.40;0
156094;100097.06;9.804;-16.60;-7.32;992.19;2.72;0.05;0.20;0
156196;100097.11;0.460;-13.67;12.21;1004.39;-0.77;1.35;-0.93;0
156298;100096.28;-8.119;-15.14;2.44;996.09;-0.32;-2.21;-1.74;0
156400;100095.89;-3.830;-0.98;1.95;997.07;1.05;1.56;-0.36;0
156502;100096.50;5.974;-12.21;12.21;1011.72;0.32;2.08;-0.29;0
156604;100097.28;7.659;-5.37;-5.37;988.28;0.10;-1.82;-1.58;0
156706;100097.06;-2.145;-13.67;3.42;1000.98;1.20;0.28;-3.11;0
156808;100096.70;-3.523;-18.55;13.18;1002.93;0.82;2.22;-0.18;0
156910;100097.56;8.425;-15.63;17.09;998.54;1.92;1.30;-0.18;0
157012;100097.78;2.145;-0.49;11.23;1005.37;0.74;-0.08;-2.07;0
157114;100095.36;-23.744;-6.35;-3.91;1009.77;0.62;2.37;-3.08;0
157216;100096.05;6.740;0.98;8.79;1001.95;1.31;-0.24;-0.78;0
157318;100095.95;-0.919;0.98;3.42;1007.32;0.90;-1.04;0.14;0
157420;100095.69;-2.604;-2.44;18.55;1000.98;-0.54;-0.44;-0.45;0
157522;100096.91;11.949;0.98;7.81;1004.88;1.94;2.47;-0.24;0
157624;100095.81;-10.723;-10.25;12.70;1006.84;-0.50;-1.22;-1.38;0
157726;100097.19;13.480;-4.39;0.49;987.79;1.33;0.89;-0.61;0
157828;100096.00;-11.642;-1.95;-12.70;997.56;0.43;-1.42;0.30;0
157930;100096.88;8.578;-8.79;5.37;976.07;3.64;0.59;-3.36;0
158032;100096.94;0.613;-21.97;0.00;1009.28;-0.11;0.95;-0.14;0
158134;100097.28;3.370;-7.81;7.32;1008.30;0.31;0.66;-1.50;0
158236;100097.17;-1.072;-4.39;6.84;983.40;1.31;0.84;-0.89;0
158338;100098.64;14.400;-8.30;2.44;1001.95;1.31;-0.19;1.45;0
158440;100097.23;-13.787;-13.67;8.79;989.75;1.27;-0.13;-1.10;0
158542;100096.55;-6.740;-23.93;4.39;1015.14;0.48;3.14;-1.06;0
158644;100096.11;-4.289;-12.70;-0.98;1004.39;2.36;1.80;-0.72;0
158746;100097.44;13.021;-9.77;0.49;996.58;1.21;0.57;0.97;0
158848;100096.69;-7.353;0.00;-1.95;997.56;1.43;0.54;-2.81;0
158950;100096.61;-0.766;-9.77;-11.23;1002.44;0.78;-0.50;-1.95;0
159052;100096.75;1.379;-3.91;1.46;1010.74;-1.37;0.59;-1.06;0
159154;100098.22;14.400;0.49;0.49;1011.23;-0.80;-2.89;-1.31;0
159256;100097.19;-10.110;-3.42;12.70;993.16;-0.44;-1.57;-2.93;0
159358;100098.41;11.949;-20.02;15.14;1000.49;0.73;1.69;-0.63;0
159460;100097.75;-6.434;-13.18;1.95;1009.28;0.63;2.05;0.93;0
159562;100097.14;-5.974;-10.25;0.00;1009.28;-1.54;-1.30;-1.20;0
159664;100096.98;-1.532;-6.84;0.98;997.07;-1.74;1.34;-1.48;0
159766;100096.48;-4.902;-24.41;4.88;996.58;0.72;0.92;0.53;0
159868;100096.16;-3.217;-7.81;2.44;1002.44;-0.08;2.23;-1.27;0
159970;100098.34;21.446;-12.70;5.86;997.56;-0.05;-0.15;-2.79;0
160072;100096.64;-16.697;-3.42;5.86;999.02;1.92;0.05;1.11;0
160174;100098.44;17.616;-30.27;-10.74;1004.39;2.19;0.27;-1.78;0
160276;100097.58;-8.425;-9.77;-3.91;1010.25;1.50;-0.14;0.46;0
160378;100097.48;-0.919;-5.37;10.74;993.65;-1.75;1.15;-2.38;0
160480;100096.23;-12.255;-10.74;9.77;1014.65;1.66;1.44;-2.61;0
160582;100096.59;3.523;-18.55;6.84;1004.88;1.52;2.82;0.38;0
160684;100096.69;0.919;-19.53;11.23;1012.70;1.62;2.94;-0.73;0
160786;100096.89;1.991;-2.44;-0.98;994.14;0.15;0.90;-0.37;0
160888;100096.78;-1.072;-26.86;12.70;1001.46;-0.46;1.60;0.04;0
160990;100097.08;2.911;-9.77;-5.37;1004.39;1.15;0.27;-0.23;0
161092;100096.03;-10.263;-4.88;-7.32;1003.42;1.14;0.66;-1.44;0
161194;100097.66;15.931;-11.72;-5.37;995.61;2.71;0.82;0.91;0
161296;100096.13;-15.012;3.91;8.30;1002.44;0.95;2.02;-0.72;0
161398;100098.23;20.680;-5.37;-1.46;1000.98;0.69;0.78;0.28;0
161500;100096.30;-18.995;-8.30;0.98;1009.28;0.26;-1.15;-1.39;0
161602;100095.69;-5.974;2.93;0.49;997.07;2.12;-0.42;1.31;0
161704;100095.91;2.145;-15.63;6.84;1003.42;-0.12;0.92;-0.71;0
161806;100097.03;11.029;-15.63;10.25;1002.44;0.50;-1.52;-1.29;0
161908;100097.64;5.974;-1.95;3.42;992.68;2.95;3.01;-0.44;0
162010;100098.09;4.442;-19.04;5.37;1006.35;1.50;-0.51;-0.71;0
162112;100097.47;-6.127;-15.63;0.98;1009.28;-0.53;1.11;-2.01;0
162214;100096.73;-7.200;-11.23;2.44;1012.21;0.98;-1.27;-0.89;0
162316;100097.55;7.966;-27.34;-0.98;995.12;-0.23;2.27;-0.58;0
162418;100097.06;-4.749;0.00;-9.28;1009.77;-0.78;-1.10;-1.69;0
162520;100097.02;-0.460;-7.32;-12.21;1004.39;0.49;-0.10;-1.03;0
162622;100097.36;3.370;-19.04;0.00;1005.37;0.78;-0.38;-0.05;0
162724;100097.16;-1.991;-7.32;-6.84;997.56;0.56;0.64;-0.75;0
162826;100097.11;-0.460;-12.70;8.79;1005.86;1.53;-1.10;-1.89;0
162928;100096.36;-7.353;-17.09;5.37;1000.00;1.36;-0.73;-1.90;0
163030;100097.31;9.344;-11.72;8.79;991.70;0.08;2.79;-1.94;0
163132;100096.16;-11.336;-7.81;3.91;1009.28;-0.19;-1.48;-2.37;0
163234;100096.92;7.506;-17.09;4.88;991.21;-0.27;0.42;0.66;0
163336;100095.80;-11.029;-19.04;1.95;1002.93;1.38;-2.63;-0.12;0
163438;100096.61;7.966;-9.28;-1.46;995.12;-1.02;2.31;1.25;0
163540;100097.17;5.515;-28.81;8.30;1009.28;0.08;1.08;-0.18;0
163642;100097.34;1.685;-8.79;-0.98;1007.81;1.46;-3.63;-0.46;0
163744;100096.64;-6.893;-12.21;23.93;993.16;0.34;-1.27;-2.24;0
163846;100096.11;-5.208;-10.74;-0.49;1000.98;0.51;-0.53;-1.59;0
163948;100096.45;3.370;-3.42;-7.32;1004.88;0.15;0.90;-0.05;0
164050;100096.36;-0.919;-7.32;1.95;1007.81;0.65;-0.30;-2.11;0
164152;100097.98;15.931;-13.67;-1.46;1000.98;0.68;-0.40;-1.20;0
164254;100097.39;-5.821;-10.74;-1.46;1008.79;0.47;3.66;1.26;0
164356;100097.05;-3.370;-15.14;3.91;1008.79;0.72;0.13;2.00;0
164458;100096.52;-5.208;-6.84;-0.98;1006.84;0.26;0.68;-0.66;0
164560;100095.97;-5.362;-10.74;7.32;1013.18;0.63;3.15;1.53;0
164662;100097.56;15.625;-8.79;-1.95;1017.09;1.20;1.03;-1.60;0
164764;100096.27;-12.714;-13.18;-1.95;1013.67;1.25;1.34;-1.59;0
164866;100096.45;1.838;-4.88;-8.30;1005.37;-0.25;2.43;-0.72;0
164968;100096.05;-3.983;-4.88;-0.98;1000.00;-0.85;1.85;-1.90;0
165070;100095.73;-3.064;-7.81;-2.93;995.12;1.16;1.32;-1.98;0
165172;100097.36;15.931;-4.39;2.44;989.26;0.98;-1.96;-1.72;0
165274;100097.91;5.362;-15.14;4.88;993.16;-0.64;0.14;-0.06;0
165376;100098.02;1.072;-10.74;-6.84;997.56;1.20;2.45;-0.92;0
165478;100096.30;-16.850;-16.11;-5.37;999.51;1.67;0.72;-0.51;0
165580;100096.94;6.281;-5.86;8.30;1009.28;1.18;0.44;-0.50;0
165682;100097.30;3.523;0.00;3.91;1002.93;0.19;2.98;-1.24;0
165784;100096.91;-3.830;-8.30;-6.84;997.56;0.02;0.11;-1.28;0
165886;100096.13;-7.659;-22.95;-4.88;1008.79;-0.46;-1.06;0.12;0
165988;100097.27;11.183;-15.63;2.44;991.70;1.08;-1.35;-1.55;0
166090;100097.42;1.532;-4.88;16.11;992.19;1.26;-0.51;-1.14;0
166192;100096.98;-4.289;-29.30;-16.60;1017.09;1.54;-0.40;1.34;0
166294;100096.77;-2.145;-6.35;2.93;990.72;1.79;0.54;-0.07;0
166396;100097.38;5.974;-10.74;2.44;1003.42;-0.62;1.30;-2.76;0
166498;100095.84;-15.012;-11.23;-2.44;985.84;0.66;1.81;-0.62;0
166600;100096.41;5.515;-0.98;13.67;994.14;0.38;-1.09;-2.91;0
166702;100096.56;1.532;-11.72;4.39;999.51;0.50;-0.38;-0.72;0
166804;100098.11;15.165;-10.25;-2.93;998.54;0.79;-0.96;-1.07;0
166906;100096.88;-12.102;-7.32;-2.44;997.56;0.76;2.12;-0.03;0
167008;100097.03;1.532;-15.14;6.35;987.79;0.94;1.51;0.92;0
167110;100095.81;-11.949;-22.95;-3.91;1001.95;1.82;-0.73;-1.53;0
167212;100097.63;17.770;-5.86;4.88;994.63;0.10;4.13;2.22;0
167314;100096.20;-13.940;-6.84;0.98;996.58;-1.44;3.12;-0.28;0
167416;100097.27;10.417;-7.32;7.81;1000.00;-0.66;0.79;-2.48;0
167518;100096.25;-9.957;-2.93;-4.88;995.12;0.28;1.69;0.21;0
167620;100096.17;-0.766;-9.28;-1.46;1003.91;0.27;0.92;0.18;0
167722;100097.47;12.714;-26.37;-6.84;995.61;0.69;1.07;-1.15;0
167824;100096.08;-13.634;-3.42;8.30;1000.00;1.24;-2.33;-0.32;0
167926;100098.00;18.842;-10.25;-6.35;999.02;0.60;-1.28;-0.87;0
168028;100097.30;-6.893;-12.21;7.32;1000.00;0.66;2.04;-0.65;0
168130;100097.31;0.153;2.44;-3.42;1014.65;0.76;1.99;-1.66;0
168232;100097.27;-0.460;-8.30;0.98;1010.25;1.34;0.82;0.12;0
168334;100097.23;-0.306;-12.70;-8.30;1007.81;1.50;0.37;-1.37;0
168436;100095.92;-12.868;-4.88;-1.46;992.19;0.33;4.05;-1.05;0
168538;100096.97;10.263;-2.93;17.58;1007.81;-0.66;-2.66;-1.49;0
168640;100095.27;-16.697;-3.91;9.28;993.65;1.08;2.84;-0.76;0
168742;100095.97;6.893;-7.81;-3.42;1001.46;1.57;1.44;0.50;0
168844;100095.08;-8.732;-6.35;7.81;1001.95;1.33;-0.50;-0.71;0
168946;100096.70;15.931;-12.21;-4.39;1012.21;0.48;-2.06;-0.70;0
169048;100095.17;-15.012;-7.32;11.23;999.51;1.31;3.37;-1.04;0
169150;100096.67;14.706;-2.93;-4.39;1011.72;-0.07;1.25;0.18;0
169252;100096.28;-3.830;-4.39;-0.49;1005.86;-1.30;0.28;-1.04;0
169354;100096.02;-2.604;-11.23;3.42;998.54;0.60;0.72;-0.23;0
169456;100095.95;-0.613;-11.23;-15.63;997.07;1.38;3.76;-1.04;0
169558;100096.75;7.812;-4.88;-4.39;999.51;2.22;-2.48;-0.82;0
169660;100096.59;-1.532;-7.32;-8.79;1006.35;0.50;-1.53;1.31;0
169762;100095.88;-7.047;-11.23;10.25;1004.88;1.87;2.76;-0.67;0
169864;100098.72;27.880;-2.93;0.98;1007.81;0.89;-0.73;-0.37;0
169966;100096.39;-22.825;-18.55;1.46;999.51;0.85;-1.15;0.54;0
170068;100095.22;-11.489;-12.70;-3.91;1009.77;1.33;1.45;0.93;0
170170;100096.11;8.732;-5.37;2.93;998.54;1.21;0.04;-2.13;0
170272;100095.66;-4.442;-16.11;9.28;1003.91;1.08;-0.90;-2.73;0
170374;100096.03;3.676;-21.48;12.21;1012.21;1.32;-1.15;-1.34;0
170476;100096.77;7.200;1.95;4.88;998.05;0.67;0.67;-0.98;0
170578;100096.95;1.838;-1.46;8.79;1014.16;2.14;0.54;-2.81;0
170680;100096.28;-6.587;1.46;-6.84;1005.37;-0.19;1.62;-1.74;0
170782;100096.27;-0.153;-9.77;7.81;1005.86;0.00;-0.02;-1.53;0
170884;100097.27;9.804;-11.23;-1.46;992.68;0.05;-0.54;-2.21;0
170986;100096.27;-9.804;-10.25;8.30;1008.30;-1.24;1.99;-2.23;0
171088;100096.28;0.153;-19.04;3.42;998.54;-0.11;1.44;-0.88;0
171190;100096.02;-2.604;-11.72;5.86;1009.28;0.66;-0.41;-2.47;0
171292;100096.22;1.991;-15.14;4.88;1001.95;-0.37;2.78;-3.95;0
171394;100097.27;10.263;-4.88;6.35;994.14;2.15;-0.66;0.53;0
171496;100095.55;-16.850;-6.84;5.37;1000.98;0.34;1.62;-1.80;0
171598;100097.63;20.374;-18.07;0.98;1000.49;0.66;3.05;-0.15;0
171700;100096.44;-11.642;-1.46;8.30;1007.81;2.44;-0.34;-1.05;0
171802;100096.44;0.000;3.42;-0.49;989.26;1.35;-0.08;-1.45;0
171904;100097.48;10.263;0.00;0.49;1002.44;1.64;0.60;-2.95;0
172006;100097.28;-1.991;-8.79;8.79;1018.55;-0.22;1.06;-0.06;0
172108;100095.69;-15.625;-8.30;14.65;1008.30;1.07;1.27;-1.29;0
172210;100096.86;11.489;-2.93;-0.98;1020.02;0.60;-1.78;-0.98;0
172312;100095.84;-9.957;-11.72;3.42;1027.34;1.40;-0.02;-0.35;0
172414;100096.91;10.417;-13.18;4.39;1031.74;-0.69;-0.08;-0.34;1
172516;100096.34;-5.515;-9.28;7.32;1026.86;0.38;1.57;-0.56;0
172618;100096.33;-0.153;-18.55;-6.35;1063.96;2.54;0.08;-0.45;1
172720;100096.05;-2.757;-3.42;6.35;1048.34;-0.11;1.11;-1.53;1
172822;100095.81;-2.298;1.46;7.32;1052.25;-0.42;0.66;-2.09;1
172924;100095.92;1.072;-5.86;-4.88;1054.69;2.56;0.50;0.91;1
173026;100095.86;-0.613;-11.72;6.84;1052.73;0.36;0.22;-1.32;1
173128;100093.48;-23.284;-6.84;-6.35;1046.88;-0.72;2.65;-0.69;1
173230;100094.28;7.812;-4.88;6.35;1038.57;2.09;-1.44;-0.49;1
173332;100091.45;-27.727;-10.74;-1.95;1066.41;0.11;-1.11;-0.35;1
173434;100092.45;9.804;-13.67;1.95;1053.22;1.53;1.11;0.28;1
173536;100092.19;-2.604;-4.88;-1.95;1061.52;2.24;0.50;0.16;1
173638;100090.91;-12.561;-4.88;-1.95;1047.36;1.89;2.08;-0.50;1
173740;100088.63;-22.365;-6.84;7.32;1041.50;0.15;-0.26;-0.22;1
173842;100088.94;3.064;-23.93;14.65;1043.46;0.47;0.99;0.63;1
173944;100088.58;-3.523;-8.30;0.49;1060.06;1.18;0.24;-1.35;1
174046;100084.34;-41.513;-15.63;10.25;1057.13;-0.13;1.27;-1.47;1
174148;100084.69;3.370;-15.14;-23.93;1006.84;2.07;-4.15;-0.51;0
174250;100082.50;-21.446;-32.71;0.00;1074.22;1.36;0.60;1.25;1
174352;100081.05;-14.246;-25.39;5.86;1053.71;0.97;-2.01;-1.76;1
174454;100080.34;-6.893;-28.32;-1.95;1054.20;1.60;-1.64;0.40;1
174556;100078.50;-18.076;3.91;19.04;998.05;1.73;-1.14;-3.32;0
174658;100077.70;-7.812;-25.88;0.98;1050.78;0.83;-1.91;2.52;1
174760;100075.97;-17.004;7.81;5.37;1002.93;0.08;-0.07;-0.33;0
174862;100074.27;-16.697;-14.16;-5.37;1005.86;-0.54;0.54;-0.94;0
174964;100074.70;4.289;0.49;-8.30;991.70;1.45;-0.61;-1.06;0
175066;100073.02;-16.544;0.98;-2.93;995.61;-0.42;-1.93;1.08;0
175168;100072.39;-6.127;3.42;-5.86;971.19;0.79;1.37;-2.47;0
175270;100070.59;-17.616;3.91;-10.25;976.07;0.20;-1.79;-0.50;0
175372;100069.34;-12.255;-6.84;1.95;1014.65;-0.50;2.16;-0.84;0
175474;100069.47;1.225;8.79;0.49;964.36;0.82;0.34;0.76;1
175576;100068.41;-10.417;-13.18;-8.30;1008.79;-1.17;-1.50;-0.03;0
175678;100066.97;-14.093;4.39;10.74;1003.42;-0.98;-0.05;-1.55;0
175780;100065.80;-11.489;-18.07;8.79;1009.77;1.45;0.89;0.78;0
175882;100065.56;-2.298;-2.44;-5.37;1007.81;1.69;2.55;-1.76;0
175984;100063.23;-22.825;-24.90;6.84;1024.41;1.92;1.37;0.85;0
176086;100062.94;-2.911;-12.70;4.39;1026.37;1.51;0.07;-1.15;0
176188;100061.58;-13.327;15.14;20.51;973.63;0.16;0.06;-1.89;0
176290;100059.64;-18.995;-15.63;-27.83;1004.39;-0.02;0.81;0.63;0
176392;100057.88;-17.310;-14.16;-3.91;977.54;-1.47;2.40;-2.66;0
176494;100057.69;-1.838;-4.39;13.18;980.96;-0.29;-0.63;-1.19;0
176596;100056.52;-11.489;11.23;-1.46;994.63;1.00;-0.79;-0.51;0
176698;100054.17;-22.978;-30.76;15.14;1023.44;1.44;-2.27;-0.10;0
176800;100052.89;-12.561;0.49;0.00;985.84;1.26;-1.42;-1.97;0
176902;100051.66;-12.102;-28.81;-14.16;1016.60;1.65;1.26;-0.77;0
177004;100050.77;-8.732;-16.11;-14.16;1020.51;-1.66;0.23;0.23;0
177106;100049.50;-12.408;-21.00;11.23;981.45;2.17;-0.15;0.83;0
177208;100049.61;1.072;0.00;2.93;999.51;1.38;2.34;-2.63;0
177310;100048.27;-13.174;-14.16;2.44;1000.49;1.50;-1.57;0.23;0
177412;100046.72;-15.165;-10.25;13.18;993.65;0.00;0.08;0.28;0
177514;100046.64;-0.766;-9.28;10.25;982.91;2.24;-1.53;-2.06;0
177616;100045.84;-7.812;-11.23;-15.14;1015.14;1.92;-0.15;0.59;0
177718;100042.73;-30.484;-10.25;7.81;962.40;-0.74;3.71;-2.42;1
177820;100042.92;1.838;-4.39;-11.23;984.37;0.86;-1.87;-2.44;0
177922;100040.64;-22.365;-28.32;8.30;1012.21;1.50;1.45;-0.75;0
178024;100039.75;-8.732;-9.77;0.98;960.45;1.44;1.01;-0.02;1
178126;100039.08;-6.587;-24.41;2.93;982.42;0.40;1.45;1.19;0
178228;100038.27;-7.966;-17.09;1.95;963.87;-1.60;-0.75;-0.92;1
178330;100036.88;-13.634;-6.35;16.11;956.54;1.44;4.54;-1.40;1
178432;100035.30;-15.472;-9.28;13.18;919.43;1.04;-0.85;-0.37;1
178534;100035.88;5.668;-8.79;15.63;964.84;0.90;-0.09;1.47;1
178636;100035.14;-7.200;-5.37;8.79;941.89;2.12;1.65;-0.43;1
178738;100033.06;-20.374;-7.32;5.86;930.18;3.51;-2.20;-2.44;1
178840;100032.64;-4.136;-13.18;-0.49;964.36;1.53;2.10;-1.95;1
178942;100032.72;0.766;-27.34;20.51;945.31;0.06;-1.31;-1.50;1
179044;100030.94;-17.463;5.37;17.58;946.78;0.50;1.53;-1.63;1
179146;100030.81;-1.225;-18.07;4.88;927.73;0.35;0.72;-2.18;1
179248;100030.25;-5.515;3.42;6.84;949.22;0.92;0.69;0.47;1
179350;100029.17;-10.570;-2.93;-7.81;944.82;1.26;3.11;-2.06;1
179452;100029.11;-0.613;-4.39;14.65;938.96;0.84;-0.56;-0.37;1
179554;100027.81;-12.714;-7.32;8.30;934.57;0.34;-0.38;-0.79;1
179656;100028.52;6.893;-1.95;-1.46;949.22;0.98;0.47;-0.63;1
179758;100028.13;-3.830;-10.25;-4.39;974.12;-0.18;-1.81;0.89;0
179860;100028.81;6.740;-7.32;1.46;954.10;2.40;1.73;-2.83;1
179962;100029.55;7.200;-6.35;6.84;973.14;1.53;2.21;-2.69;0
180064;100027.98;-15.319;-13.18;1.46;973.63;1.85;-1.04;-1.20;0
180166;100028.59;5.974;-11.23;6.84;979.49;0.73;0.20;-0.85;0
180268;100030.17;15.472;-11.23;1.95;997.07;1.15;-0.02;1.24;0
180370;100027.88;-22.518;1.46;2.93;993.65;-0.44;2.39;0.82;0
180472;100027.48;-3.830;-5.37;0.98;1016.60;1.48;0.13;-0.66;0
180574;100030.06;25.276;-19.04;0.00;984.37;1.20;3.82;0.50;0
180676;100029.81;-2.451;-14.16;0.49;1005.86;-0.21;-0.31;0.87;0
180778;100029.23;-5.668;-18.55;-1.46;984.86;2.56;-0.01;-1.02;0
180880;100028.98;-2.451;-11.72;5.37;1001.95;0.02;-0.71;-0.94;0
180982;100030.17;11.642;-2.93;-22.46;1011.23;0.97;4.44;-0.79;0
181084;100029.23;-9.191;-4.39;5.86;986.82;-0.28;-0.31;0.31;0
181186;100029.03;-1.991;-7.81;-16.11;1002.93;1.64;-0.48;-0.85;0
181288;100029.75;7.047;9.28;6.35;999.51;0.14;-1.06;-2.02;0
181390;100029.22;-5.208;-12.70;4.88;1011.72;-0.26;1.30;-2.17;0
181492;100029.61;3.830;-9.28;1.95;1002.44;-1.18;-0.01;-0.47;0
181594;100029.88;2.604;-10.25;-1.95;1016.11;2.76;0.14;-0.16;0
181696;100029.16;-7.047;-9.77;11.23;998.54;0.26;-0.30;-0.40;0
181798;100029.30;1.379;-4.88;-0.49;1001.46;1.12;-1.51;-1.53;0
181900;100030.00;6.893;-14.16;10.25;1008.79;0.72;0.45;-1.51;0
182002;100030.53;5.208;-17.58;12.21;1004.39;-0.33;1.07;-1.16;0
182104;100030.98;4.442;-18.07;6.84;1009.28;0.64;0.59;-1.50;0
182206;100029.83;-11.336;-9.77;-0.49;998.05;1.40;-1.68;-0.62;0
182308;100030.44;5.974;-22.95;0.00;1007.81;2.41;1.73;-1.37;0
182410;100030.08;-3.523;6.84;4.39;994.14;-0.53;-0.30;-1.57;0
182512;100029.00;-10.570;-4.88;6.35;1002.93;2.12;0.72;-1.16;0
182614;100028.84;-1.532;-8.30;9.77;1012.70;1.34;1.39;0.87;0
182716;100029.55;6.893;-0.49;1.95;1001.95;-0.35;1.27;-1.40;0
182818;100030.17;6.127;-18.07;-9.28;995.12;0.90;0.59;-0.37;0
182920;100028.73;-14.093;-19.53;2.93;1009.77;1.11;0.76;-0.71;0
183022;100029.50;7.506;-5.86;2.44;988.28;-1.92;1.03;-2.20;0
183124;100029.38;-1.225;-1.95;8.79;998.54;0.37;-0.04;-1.05;0
183226;100029.98;5.974;-11.23;-9.77;1002.44;1.53;-0.63;0.18;0
183328;100031.52;15.012;-10.74;5.37;1008.79;-0.45;-0.49;-1.22;0
183430;100029.92;-15.625;-15.63;-9.28;1011.23;0.14;0.40;-0.05;0
183532;100028.77;-11.336;-13.67;-4.39;989.75;0.73;0.49;-1.24;0
183634;100029.45;6.740;-9.77;-6.35;996.58;0.46;0.97;-1.86;0
183736;100030.63;11.489;-10.25;5.37;986.82;0.10;-0.86;-1.56;0
183838;100031.14;5.055;4.88;1.95;1000.00;0.50;0.76;-0.67;0
183940;100030.84;-2.911;-2.44;2.93;978.03;1.12;1.42;-1.08;0
184042;100031.39;5.362;-5.86;5.86;1002.44;0.32;2.27;-2.23;0
184144;100032.06;6.587;-0.98;0.98;1012.21;0.06;1.18;2.05;0
184246;100032.05;-0.153;-31.25;-0.98;1014.65;-0.01;1.27;-2.39;0
184348;100031.19;-8.425;-12.70;2.93;985.84;-1.20;-0.40;1.30;0
184450;100030.77;-4.136;-13.67;6.84;984.86;0.11;-1.14;-1.05;0
184552;100030.72;-0.460;-14.16;-0.49;1009.77;0.34;-1.21;-0.20;0
184654;100032.13;13.787;-21.00;-9.28;1016.11;0.82;0.43;-0.44;0
184756;100030.22;-18.689;-3.42;0.98;995.12;1.24;-1.46;-1.15;0
184858;100031.59;13.480;-13.18;3.91;996.09;0.55;1.37;0.08;0
184960;100032.08;4.749;-6.84;1.95;991.21;0.65;1.76;-0.85;0
185062;100031.59;-4.749;-15.63;4.39;1003.42;0.71;1.22;-0.69;0
185164;100030.88;-7.047;-18.55;7.81;995.12;-0.11;1.89;-0.97;0
185266;100031.73;8.425;-5.86;-17.09;1005.86;3.47;2.27;-1.85;0
185368;100031.16;-5.668;-5.37;8.30;1005.37;2.58;0.64;0.01;0
185470;100031.73;5.668;-3.91;-1.95;984.86;-0.15;3.24;1.47;0
185572;100031.36;-3.676;-17.09;6.35;1003.42;1.50;0.32;-1.81;0
185674;100030.64;-7.047;-5.86;2.44;1002.93;-0.08;0.57;-0.34;0
185776;100030.70;0.613;5.86;-5.37;995.12;-0.25;0.01;-0.74;0
185878;100032.81;20.680;-12.21;9.28;987.30;1.94;2.59;-3.34;0
185980;100031.64;-11.489;-12.70;8.30;1001.95;0.40;-2.42;0.43;0
186082;100030.33;-12.868;-8.30;14.16;996.09;0.21;0.04;1.01;0
186184;100030.50;1.685;-13.67;10.25;1011.23;1.73;1.07;-0.63;0
186286;100031.20;6.893;-13.18;3.42;1002.93;-0.97;-1.61;-0.96;0
186388;100030.67;-5.208;-11.72;-1.46;987.30;1.91;-1.18;-1.67;0
186490;100030.39;-2.757;-14.16;1.46;1006.84;-0.15;1.31;-1.34;0
186592;100031.66;12.408;-12.21;1.95;995.61;0.63;-1.91;0.27;0
186694;100032.66;9.804;-14.65;-2.44;1001.46;0.27;1.77;0.09;0
186796;100031.58;-10.570;-8.30;9.28;1003.91;0.00;-0.88;-1.54;0
186898;100029.70;-18.382;-7.81;-5.37;1010.25;0.16;0.46;-1.11;0
187000;100032.14;23.897;-20.51;12.21;1003.91;0.70;0.08;-1.41;0
187102;100030.48;-16.238;3.42;9.28;1016.60;2.00;0.08;0.49;0
187204;100031.77;12.561;-6.84;1.46;1000.98;-1.61;2.05;0.47;0
187306;100030.31;-14.246;-7.32;-6.84;1018.55;-0.95;0.48;-2.26;0
187408;100031.03;7.047;-16.11;-11.23;994.14;1.22;0.73;-2.15;0
187510;100030.97;-0.613;-11.23;-16.60;1000.98;1.97;1.57;-1.64;0
187612;100031.72;7.353;-16.11;-4.88;1004.88;1.34;0.71;-1.56;0
187714;100030.11;-15.778;3.42;2.44;992.19;0.11;0.23;-0.55;0
187816;100030.95;8.272;-21.00;-0.98;1007.32;0.38;1.90;-1.87;0
187918;100030.84;-1.072;0.00;-3.42;996.09;0.30;1.60;0.56;0
188020;100030.52;-3.217;-0.49;-10.25;1006.84;1.27;3.24;-0.54;0
188122;100030.45;-0.613;-17.58;2.93;1008.30;0.23;-0.59;-2.13;0
188224;100031.31;8.425;-1.95;5.37;998.54;1.08;0.18;0.85;0
188326;100030.19;-11.029;-12.70;-1.95;994.14;-0.33;-1.00;-0.07;0
188428;100031.05;8.425;-12.21;20.51;1000.00;-0.58;5.32;-1.37;1
188530;100030.09;-9.344;0.98;16.11;1003.42;0.07;3.86;-0.43;0
188632;100030.73;6.281;-21.48;13.67;999.02;0.29;0.78;1.92;0
188734;100030.22;-5.055;2.93;-16.11;999.02;0.38;-0.08;-1.28;0
188836;100031.61;13.634;-18.55;5.37;996.09;0.79;1.73;-2.17;0
188938;100031.94;3.217;-14.16;-7.81;1005.37;-0.39;1.37;0.03;0
189040;100031.53;-3.983;-4.88;13.67;974.12;0.35;1.57;-1.98;0
189142;100029.86;-16.391;-2.93;-3.42;992.68;0.88;3.06;0.87;0
189244;100030.63;7.506;-7.81;11.72;999.51;-0.19;-1.89;-1.53;0
189346;100030.64;0.153;-3.91;5.86;1002.93;0.98;0.29;0.92;0
189448;100030.89;2.451;-7.81;8.79;1009.77;0.59;2.74;-0.76;0
189550;100031.11;2.145;-8.79;2.44;1007.32;1.07;0.23;0.46;0
189652;100031.16;0.460;-9.28;-7.32;996.58;2.30;0.33;-2.15;0
189754;100031.09;-0.613;-7.32;1.46;1007.81;-0.66;-0.08;-0.44;0
189856;100030.70;-3.830;-12.70;2.93;1000.49;0.89;2.61;-3.48;0
189958;100031.03;3.217;-18.07;11.72;1007.32;2.33;-0.69;-1.38;0
190060;100030.63;-3.983;1.46;4.39;993.16;0.27;1.39;1.04;0
190162;100030.98;3.523;-25.39;-12.70;1007.81;0.53;-0.80;-2.25;0
190264;100030.55;-4.289;-5.37;13.67;1015.62;0.90;1.69;0.56;0
190366;100031.31;7.506;-22.46;0.49;990.72;1.63;0.54;-2.02;0
190468;100030.36;-9.344;-4.88;1.95;995.61;1.98;2.08;-1.19;0
190570;100028.95;-13.787;-2.44;-4.88;1002.93;0.97;-0.82;0.86;0
190672;100029.88;9.038;-21.00;-8.79;1019.04;0.96;2.17;-0.23;0
190774;100031.70;17.923;-3.42;4.88;993.65;0.21;1.53;0.91;0
190876;100031.16;-5.362;-13.18;5.86;984.86;2.31;0.58;-1.76;0
190978;100030.36;-7.812;-12.21;2.93;989.75;3.10;1.04;-0.27;0
191080;100031.63;12.408;-24.41;2.93;1000.00;0.32;1.31;-0.83;0
191182;100030.05;-15.472;-12.70;6.84;1000.49;1.33;-0.82;0.32;0
191284;100030.11;0.613;-19.53;-14.65;1051.27;-1.94;2.16;-1.34;1
191386;100030.44;3.217;2.44;-4.39;1001.46;0.14;1.85;0.14;0
191488;100031.33;8.732;-14.65;8.79;996.58;0.19;-0.29;-2.23;0
191590;100031.92;5.821;-0.49;5.86;1001.95;1.33;-0.60;0.73;0
191692;100030.50;-13.940;-1.46;0.00;1009.28;1.00;-1.24;0.96;0
191794;100030.80;2.911;-11.72;-5.37;993.65;2.42;-0.20;0.05;0
191896;100031.45;6.434;-8.30;-4.88;991.70;-0.20;2.82;-0.96;0
191998;100032.58;11.029;-20.51;1.95;995.12;0.20;-1.66;0.32;0
192100;100030.63;-19.148;-19.04;2.93;1000.98;-0.30;-0.59;-1.52;0
192202;100031.91;12.561;-12.70;-1.46;1002.44;1.05;1.10;0.66;0
192304;100029.25;-26.042;-11.72;12.21;987.30;0.50;-0.26;0.64;0
192406;100030.47;11.949;-17.09;5.37;987.79;0.15;-0.95;-1.68;0
192508;100030.89;4.136;-10.25;-8.30;998.54;0.92;3.72;1.45;0
192610;100029.63;-12.408;-1.46;6.35;998.54;1.40;0.66;-1.63;0
192712;100030.50;8.578;-18.55;-6.84;1019.53;0.53;1.85;0.86;0
192814;100031.02;5.055;-9.28;-1.46;996.09;1.91;-2.37;0.53;0
192916;100030.14;-8.578;1.95;-1.46;1008.79;1.27;0.71;-0.48;0
193018;100031.38;12.102;-15.14;12.21;1001.95;0.02;-0.73;-1.31;0
193120;100031.55;1.685;-9.77;2.93;1014.16;0.04;1.34;0.95;0
193222;100030.39;-11.336;-8.79;5.86;1005.86;1.12;1.11;-1.69;0
193324;100030.22;-1.685;-8.30;2.44;1004.88;1.77;2.55;-0.54;0
193426;100031.94;16.850;-22.95;1.95;996.58;1.82;-0.87;-1.26;0
193528;100030.98;-9.344;-4.88;-3.91;988.28;0.15;-1.73;-1.21;0
193630;100031.02;0.306;-14.65;-4.88;997.07;1.22;1.96;0.45;0
193732;100031.22;1.991;0.00;5.86;1003.91;-0.70;0.48;-0.18;0
193834;100032.03;7.966;-16.11;3.42;1018.55;0.98;0.53;0.36;0
193936;100031.17;-8.425;-12.70;0.49;994.63;0.55;1.53;-0.25;0
194038;100030.31;-8.425;-11.72;9.77;981.45;0.89;2.21;-2.00;0
194140;100029.50;-7.966;-16.11;-9.28;1004.39;1.34;2.74;0.27;0
194242;100030.42;9.038;-19.53;-3.42;1002.93;2.82;-0.79;-1.56;0
194344;100030.75;3.217;-10.74;10.74;994.63;0.80;0.63;-0.99;0
194446;100028.95;-17.616;-4.88;2.93;997.07;0.68;1.50;-1.33;0
194548;100029.56;5.974;7.32;0.00;1003.91;-0.14;-1.25;-1.24;0
194650;100029.67;1.072;-8.30;-5.86;1002.93;-0.63;2.55;-1.82;0
194752;100030.53;8.425;-14.16;-2.93;1009.77;2.94;-0.21;0.32;0
194854;100029.27;-12.408;-18.07;13.18;994.14;1.15;5.11;-2.47;1
194956;100028.70;-5.515;-8.79;1.95;998.05;2.31;-0.30;-0.99;0
195058;100030.98;22.365;-18.07;11.23;1003.42;0.51;2.02;-1.95;0
195160;100029.30;-16.544;-6.84;-24.90;998.54;0.30;1.05;-0.33;0
195262;100031.13;17.923;-16.11;-3.91;995.12;1.59;1.82;-0.78;0
195364;100028.70;-23.744;-7.32;-2.93;1012.70;1.48;0.98;-1.06;0
195466;100031.06;23.131;-3.91;2.93;996.58;1.87;0.59;-0.29;0
195568;100029.55;-14.859;-17.58;16.60;1013.67;0.28;-1.20;0.63;0
195670;100030.38;8.119;-15.14;2.44;998.54;0.77;-0.34;-0.76;0
195772;100030.47;0.919;-15.14;1.46;1006.84;2.16;1.09;-0.08;0
195874;100030.64;1.685;-16.60;-14.16;996.58;1.56;-2.18;1.05;0
195976;100030.55;-0.919;-10.74;5.86;1000.49;1.27;0.17;-1.99;0
196078;100029.48;-10.417;-11.23;-14.16;1008.30;0.14;0.90;0.19;0
196180;100029.66;1.685;-15.63;-5.86;1005.86;1.79;2.98;-0.62;0
196282;100029.83;1.685;3.91;-2.93;1009.28;0.25;-1.27;-1.08;0
196384;100029.38;-4.442;-0.98;-5.86;991.21;0.20;0.31;-1.53;0
196486;100029.56;1.838;-13.67;15.63;1003.42;0.50;-0.65;-0.82;0
196588;100029.97;3.983;-19.53;0.49;997.07;-0.15;-1.06;-0.85;0
196690;100030.28;3.064;-16.11;4.39;1009.77;0.79;-0.83;0.97;0
196792;100029.72;-5.515;-9.77;-8.30;999.02;-1.18;1.35;1.86;0
196894;100029.63;-0.919;-17.58;0.49;989.26;-0.34;0.69;-0.23;0
196996;100029.67;0.460;-14.65;4.39;1003.42;1.70;0.27;0.40;0
197098;100030.41;7.200;-5.86;0.98;997.56;0.91;1.85;-1.89;0
197200;100029.31;-10.723;-9.28;2.93;1008.30;-0.29;-0.50;0.61;0
197302;100029.39;0.766;-19.53;7.32;993.65;1.79;-0.03;-0.02;0
197404;100029.11;-2.757;8.30;10.74;1012.70;0.37;1.36;-1.84;0
197506;100029.66;5.362;-7.81;15.14;996.09;0.45;-2.97;1.47;0
197608;100030.27;5.974;-9.77;2.44;1013.18;1.13;1.27;-0.93;0
197710;100029.61;-6.434;-0.49;6.35;1001.95;-0.04;3.11;1.01;0
197812;100030.53;9.038;-15.63;5.37;987.30;-0.02;-1.17;-1.36;0
197914;100030.48;-0.460;-16.60;-1.95;982.42;0.41;-0.04;1.31;0
198016;100030.47;-0.153;-6.35;-8.30;990.72;0.13;-1.59;-1.18;0
198118;100028.75;-16.850;-14.16;-11.23;974.12;-0.08;2.72;-2.40;0
198220;100028.63;-1.225;-5.37;0.00;960.94;0.11;3.19;-0.52;1
198322;100030.84;21.752;-8.79;-2.44;974.61;1.29;1.71;-1.60;0
198424;100028.95;-18.536;-5.86;4.39;958.98;-0.25;0.18;-0.49;1
198526;100028.27;-6.740;-13.18;0.98;960.94;0.57;2.89;0.56;1
198628;100028.91;6.281;-10.74;-5.37;949.71;0.71;0.82;0.37;1
198730;100029.88;9.498;-21.00;1.95;930.18;1.30;0.37;0.37;1
198832;100028.75;-11.029;0.49;-8.30;942.38;2.27;-0.31;-1.73;1
198934;100029.09;3.370;0.00;0.98;945.31;-0.51;-1.44;-2.54;1
199036;100029.22;1.225;-27.83;11.72;949.22;-0.06;-0.43;-1.48;1
199138;100030.73;14.859;-3.42;-4.88;975.10;3.05;-1.40;-0.80;0
199240;100029.50;-12.102;-25.88;-9.77;991.70;1.01;0.05;-1.28;0
199342;100030.17;6.587;-4.39;27.83;930.18;2.47;0.34;-0.96;1
199444;100030.13;-0.460;-5.86;19.04;952.15;-1.04;4.94;-0.31;1
199546;100031.20;10.570;-0.49;0.98;951.17;0.46;1.08;-1.02;1
199648;100030.84;-3.523;-17.09;-1.95;920.90;0.96;-0.26;-0.32;1
199750;100030.89;0.460;-15.63;19.04;991.21;1.23;-0.50;1.11;0
199852;100031.86;9.498;-7.32;-5.86;963.87;2.24;-2.01;-0.14;1
199954;100034.94;30.178;-28.81;-7.32;1000.98;2.41;0.59;-0.32;0
200056;100034.06;-8.578;-7.32;12.70;961.91;0.44;0.46;0.45;1
200158;100034.44;3.676;-15.63;19.04;988.28;2.51;-1.25;-1.14;0
200260;100035.34;8.885;-27.34;2.44;997.07;1.23;0.85;-0.73;0
200362;100036.97;15.931;-8.79;-6.35;999.02;1.82;-0.27;0.41;0
200464;100039.23;22.212;-16.11;17.09;1003.42;1.44;1.82;0.12;0
200566;100040.14;8.885;-12.21;0.00;1000.98;2.12;-2.40;3.06;0
200668;100040.42;2.757;-4.39;5.86;963.38;0.60;-0.51;-2.83;1
200770;100041.72;12.714;-3.91;-4.88;1008.30;0.20;2.15;-2.47;0
200872;100043.22;14.706;-6.84;-10.74;1018.07;0.82;2.02;-0.26;0
200974;100044.86;16.085;-16.60;-6.35;1016.11;0.99;-1.22;0.14;0
201076;100045.11;2.451;-9.77;-6.84;1014.16;0.47;0.60;-2.44;0
201178;100047.02;18.689;-9.28;12.70;975.10;1.92;-0.19;-1.10;0
201280;100047.16;1.379;-9.28;10.25;985.84;-0.55;0.35;-0.01;0
201382;100048.55;13.634;6.35;-7.81;999.02;-1.26;-0.73;-0.26;0
201484;100049.84;12.714;6.35;-3.91;1001.46;0.19;2.50;-1.60;0
201586;100051.64;17.616;-17.09;7.81;1008.30;0.37;2.53;-0.38;0
201688;100053.23;15.625;-19.53;8.79;1002.93;1.27;-0.14;0.92;0
201790;100053.03;-1.991;-28.81;-1.95;1017.09;0.47;0.66;0.63;0
201892;100052.81;-2.145;-13.18;5.86;973.63;0.71;-2.17;0.46;0
201994;100055.42;25.582;-1.46;-3.42;985.35;1.44;0.14;-1.91;0
202096;100056.41;9.651;-2.93;6.84;1000.00;0.05;1.62;-1.34;0
202198;100058.67;22.212;-18.07;-6.35;996.09;1.18;0.23;-1.09;0
202300;100059.88;11.795;-7.32;-0.49;1029.30;-0.69;0.96;-0.22;0
202402;100061.72;18.076;-9.77;10.25;990.23;0.04;-1.53;1.39;0
202504;100061.80;0.766;-11.23;4.39;983.89;-2.05;2.80;0.03;0
202606;100062.19;3.830;1.46;-2.93;998.05;0.81;2.04;-1.55;0
202708;100064.08;18.536;-4.88;-12.70;1032.71;0.31;-0.71;0.44;1
202810;100065.77;16.544;-15.14;-0.98;1021.48;0.98;-2.23;-1.02;0
202912;100068.06;22.518;-24.90;4.88;997.07;1.08;-0.09;0.54;0
203014;100069.02;9.344;-10.25;9.77;999.51;-0.36;-0.33;-1.03;0
203116;100071.13;20.680;-19.53;-2.93;1011.72;1.51;0.50;-1.15;0
203218;100071.58;4.442;-11.23;6.84;1004.39;1.06;0.33;-1.84;0
203320;100074.03;24.050;-12.21;3.91;986.82;2.15;0.78;-0.71;0
203422;100072.64;-13.634;-13.67;14.16;1020.51;-0.49;-1.69;-0.53;0
203524;100075.03;23.437;-7.81;9.77;1013.67;1.27;2.12;-0.94;0
203626;100076.39;13.327;5.37;0.98;1002.93;0.67;1.54;-1.69;0
203728;100079.23;27.880;-21.48;-7.32;1027.34;-0.14;0.95;-2.52;0
203830;100080.41;11.489;-4.88;-8.30;1025.39;0.75;0.77;0.97;0
203932;100081.02;5.974;-9.77;-3.91;1021.48;0.05;3.16;-0.97;0
204034;100084.48;34.007;-2.44;-8.79;1036.13;0.65;-2.17;-1.07;1
204136;100084.88;3.830;-2.44;9.28;1039.55;2.93;-0.17;1.20;1
204238;100086.81;18.995;-3.42;-14.65;1037.11;4.18;-0.56;-1.13;1
204340;100087.31;4.902;-13.67;-9.28;1030.76;1.79;1.48;0.66;1
204442;100089.06;17.157;6.35;-8.30;1041.99;1.86;2.60;0.30;1
204544;100090.95;18.536;-11.72;7.81;1049.80;0.84;2.79;-1.24;1
204646;100091.14;1.838;-7.81;8.79;1022.95;-0.54;-0.50;-1.47;0
204748;100092.66;14.859;-12.21;5.37;1053.71;0.31;0.99;0.41;1
204850;100094.00;13.174;-0.49;11.23;1049.80;0.73;1.36;-0.74;1
204952;100094.72;7.047;-1.95;13.67;1052.73;-0.75;-1.07;-0.56;1
205054;100095.78;10.417;-1.95;18.07;1051.76;1.15;-0.25;-2.24;1
205156;100095.31;-4.596;-15.14;4.39;1043.46;0.11;-0.51;-1.15;1
205258;100097.31;19.608;-15.14;-3.42;1058.59;-1.27;1.21;0.10;1
205360;100096.39;-9.038;-0.49;-8.79;1041.99;0.04;-0.67;0.28;1
205462;100096.50;1.072;-4.39;2.93;1046.88;0.25;-0.63;-2.33;1
205564;100097.02;5.055;-8.30;4.88;1048.34;1.78;3.45;0.56;1
205666;100097.06;0.460;2.44;12.21;1032.23;0.95;-0.24;-2.01;1
205768;100097.86;7.812;2.44;-4.88;1029.30;2.43;-1.45;-1.50;0
205870;100098.22;3.523;-14.65;-0.49;1033.69;-0.65;0.41;-1.52;1
205972;100098.14;-0.766;-16.11;15.14;1026.86;1.76;-1.78;0.89;0
206074;100096.73;-13.787;-25.39;5.86;1012.70;1.46;-1.25;0.73;0
206176;100097.34;5.974;2.44;-14.16;1005.86;0.20;-1.02;-0.62;0
206278;100098.42;10.570;-4.88;3.42;1002.44;0.02;-0.35;-0.14;0
206380;100097.28;-11.183;-2.44;12.70;995.12;0.15;1.92;0.74;0
206482;100097.89;5.974;-20.51;-1.95;999.51;-0.20;0.89;1.08;0
206584;100096.66;-12.102;-12.21;5.37;990.23;2.15;-1.11;-0.76;0
206686;100096.78;1.225;-6.84;-14.16;994.63;0.82;0.80;0.18;0
206788;100097.33;5.362;-11.23;21.48;980.96;2.76;3.43;0.49;0
206890;100098.36;10.110;-27.34;2.44;1005.86;-0.03;-2.62;-1.21;0
206992;100097.38;-9.651;0.49;-11.23;1006.35;1.05;0.65;1.54;0
207094;100097.42;0.460;0.49;10.74;1002.44;0.37;2.69;-0.40;0
207196;100097.67;2.451;-10.74;3.91;1010.74;1.07;1.21;-1.43;0
207298;100097.02;-6.434;-13.67;4.39;1006.84;0.08;2.43;-0.32;0
207400;100096.28;-7.200;-8.79;-8.79;994.14;0.50;-1.10;-0.75;0
207502;100097.80;14.859;-10.74;3.42;995.61;-0.40;-0.98;-1.16;0
207604;100097.66;-1.379;-7.81;-0.49;1000.00;1.17;0.21;-0.21;0
207706;100096.45;-11.795;-16.60;6.84;1014.65;1.74;0.40;-1.72;0
207808;100098.11;16.238;-10.25;11.23;1003.91;0.05;2.18;1.19;0
207910;100097.58;-5.208;-23.44;2.93;1005.86;0.98;2.37;-0.95;0
208012;100095.95;-15.931;0.49;0.98;996.58;-0.18;1.63;-0.24;0
208114;100097.27;12.868;-9.77;-1.46;1000.00;-0.89;-0.93;-1.00;0
208216;100097.72;4.442;-15.63;-0.49;997.07;-1.14;-1.69;0.19;0
208318;100098.16;4.289;-17.58;-3.91;1003.91;1.07;2.65;1.31;0
208420;100097.31;-8.272;-22.95;6.35;1000.98;-1.08;1.98;0.51;0
208522;100097.70;3.830;-21.00;21.48;1011.72;0.75;0.14;-1.47;0
208624;100098.92;11.949;-7.81;2.93;1007.32;-0.02;-0.86;-0.96;0
208726;100096.97;-19.148;-8.30;8.79;1002.93;0.10;-0.62;-0.66;0
208828;100098.23;12.408;-21.48;2.44;1007.32;0.66;0.54;-2.18;0
208930;100097.59;-6.281;-6.35;9.77;1006.35;0.50;0.61;2.46;0
209032;100097.55;-0.460;0.98;-4.88;989.75;0.11;1.05;-1.21;0
209134;100096.56;-9.651;-6.84;6.35;985.35;-0.09;1.44;1.05;0
209236;100098.11;15.165;-15.14;-8.30;986.33;-0.70;0.65;-2.15;0
209338;100097.17;-9.191;-24.90;6.84;999.02;0.92;0.67;-2.45;0
